,subject_id,trial_index,condition,pal_source,order_num,category,repetition,answer,bar_col,response,accuracy,total_accuracy,rt,concreteness_cond,context,concept_cat,con_pal_conc,pairing_concreteness,pair_labels
8,08ghd74tvd,43,1,"""uw_711""",3,"""p6""",0,banana,#fcdb42,banana,1,4.0,7312.0,conc,within,fruits,1p6banana,conc,fruit1
9,08ghd74tvd,43,1,"""uw_711""",3,"""p6""",0,grape,#5e2b3a,grape,1,4.0,7312.0,conc,within,fruits,1p6grape,conc,fruit1
10,08ghd74tvd,43,1,"""uw_711""",3,"""p6""",0,eggplant,#000000,eggplant,1,4.0,7312.0,conc,within,vegetables,1p6eggplant,conc,veg2
11,08ghd74tvd,43,1,"""uw_711""",3,"""p6""",0,celery,#8cf47e,celery,1,4.0,7312.0,conc,within,vegetables,1p6celery,conc,veg2
12,08ghd74tvd,44,1,"""uw_711""",3,"""p3""",0,efficiency,#ffffff,speed,0,1.0,24871.0,abs,within,features,1p3efficiency,abs,feat1
13,08ghd74tvd,44,1,"""uw_711""",3,"""p3""",0,working,#3b3b3b,working,1,1.0,24871.0,abs,within,activities,1p3working,abs,act2
14,08ghd74tvd,44,1,"""uw_711""",3,"""p3""",0,speed,#e81a4b,leisure,0,1.0,24871.0,abs,within,features,1p3speed,abs,feat1
15,08ghd74tvd,44,1,"""uw_711""",3,"""p3""",0,leisure,#90689f,efficiency,0,1.0,24871.0,abs,within,activities,1p3leisure,abs,act2
16,08ghd74tvd,45,1,"""uw_711""",3,"""p2""",0,banana,#d0b85a,banana,1,4.0,7685.0,mix,across,fruits,1p2banana,abs,fruit1
17,08ghd74tvd,45,1,"""uw_711""",3,"""p2""",0,sleeping,#1c3d61,sleeping,1,4.0,7685.0,mix,across,activities,1p2sleeping,conc,act1
18,08ghd74tvd,45,1,"""uw_711""",3,"""p2""",0,grape,#b62ef2,grape,1,4.0,7685.0,mix,across,fruits,1p2grape,abs,fruit1
19,08ghd74tvd,45,1,"""uw_711""",3,"""p2""",0,driving,#ea1d1d,driving,1,4.0,7685.0,mix,across,activities,1p2driving,conc,act1
20,08ghd74tvd,46,1,"""uw_711""",3,"""p4""",0,celery,#0e8a19,celery,1,4.0,11486.0,mix,across,vegetables,1p4celery,abs,veg2
21,08ghd74tvd,46,1,"""uw_711""",3,"""p4""",0,safety,#d0e942,safety,1,4.0,11486.0,mix,across,features,1p4safety,conc,feat2
22,08ghd74tvd,46,1,"""uw_711""",3,"""p4""",0,eggplant,#600b84,eggplant,1,4.0,11486.0,mix,across,vegetables,1p4eggplant,abs,veg2
23,08ghd74tvd,46,1,"""uw_711""",3,"""p4""",0,comfort,#a06776,comfort,1,4.0,11486.0,mix,across,features,1p4comfort,conc,feat2
24,08ghd74tvd,47,1,"""uw_711""",3,"""p7""",0,carrot,#ac6619,carrot,1,4.0,10426.0,mix,across,vegetables,1p7carrot,abs,veg1
25,08ghd74tvd,47,1,"""uw_711""",3,"""p7""",0,speed,#e81a4b,speed,1,4.0,10426.0,mix,across,features,1p7speed,conc,feat1
26,08ghd74tvd,47,1,"""uw_711""",3,"""p7""",0,efficiency,#5e78a1,efficiency,1,4.0,10426.0,mix,across,features,1p7efficiency,conc,feat1
27,08ghd74tvd,47,1,"""uw_711""",3,"""p7""",0,corn,#d0b85a,corn,1,4.0,10426.0,mix,across,vegetables,1p7corn,abs,veg1
28,08ghd74tvd,48,1,"""uw_711""",3,"""p8""",0,comfort,#a06776,comfort,1,4.0,15761.0,abs,within,features,1p8comfort,abs,feat2
29,08ghd74tvd,48,1,"""uw_711""",3,"""p8""",0,sleeping,#000000,sleeping,1,4.0,15761.0,abs,within,activities,1p8sleeping,abs,act1
30,08ghd74tvd,48,1,"""uw_711""",3,"""p8""",0,safety,#d0e942,safety,1,4.0,15761.0,abs,within,features,1p8safety,abs,feat2
31,08ghd74tvd,48,1,"""uw_711""",3,"""p8""",0,driving,#ea1d1d,driving,1,4.0,15761.0,abs,within,activities,1p8driving,abs,act1
32,08ghd74tvd,49,1,"""uw_711""",3,"""p1""",0,carrot,#cc4f1b,carrot,1,4.0,6988.0,conc,within,vegetables,1p1carrot,conc,veg1
33,08ghd74tvd,49,1,"""uw_711""",3,"""p1""",0,peach,#f1a78a,peach,1,4.0,6988.0,conc,within,fruits,1p1peach,conc,fruit2
34,08ghd74tvd,49,1,"""uw_711""",3,"""p1""",0,corn,#d5b811,corn,1,4.0,6988.0,conc,within,vegetables,1p1corn,conc,veg1
35,08ghd74tvd,49,1,"""uw_711""",3,"""p1""",0,cherry,#ea1d1d,cherry,1,4.0,6988.0,conc,within,fruits,1p1cherry,conc,fruit2
36,08ghd74tvd,50,1,"""uw_711""",3,"""p5""",0,cherry,#ea1d1d,cherry,1,4.0,14236.0,mix,across,fruits,1p5cherry,abs,fruit2
37,08ghd74tvd,50,1,"""uw_711""",3,"""p5""",0,working,#3b3b3b,working,1,4.0,14236.0,mix,across,activities,1p5working,conc,act2
38,08ghd74tvd,50,1,"""uw_711""",3,"""p5""",0,peach,#f1a78a,peach,1,4.0,14236.0,mix,across,fruits,1p5peach,abs,fruit2
39,08ghd74tvd,50,1,"""uw_711""",3,"""p5""",0,leisure,#d5a9e4,leisure,1,4.0,14236.0,mix,across,activities,1p5leisure,conc,act2
44,08ghd74tvd,53,1,"""uw_710""",3,"""p2""",1,sleeping,#1c3d61,sleeping,1,4.0,11664.0,mix,across,activities,1p2sleeping,conc,act1
45,08ghd74tvd,53,1,"""uw_710""",3,"""p2""",1,banana,#d0b85a,banana,1,4.0,11664.0,mix,across,fruits,1p2banana,abs,fruit1
46,08ghd74tvd,53,1,"""uw_710""",3,"""p2""",1,driving,#ea1d1d,driving,1,4.0,11664.0,mix,across,activities,1p2driving,conc,act1
47,08ghd74tvd,53,1,"""uw_710""",3,"""p2""",1,grape,#b62ef2,grape,1,4.0,11664.0,mix,across,fruits,1p2grape,abs,fruit1
48,08ghd74tvd,54,1,"""uw_710""",3,"""p3""",1,working,#3b3b3b,working,1,2.0,11842.0,abs,within,activities,1p3working,abs,act2
49,08ghd74tvd,54,1,"""uw_710""",3,"""p3""",1,efficiency,#ffffff,speed,0,2.0,11842.0,abs,within,features,1p3efficiency,abs,feat1
50,08ghd74tvd,54,1,"""uw_710""",3,"""p3""",1,leisure,#90689f,leisure,1,2.0,11842.0,abs,within,activities,1p3leisure,abs,act2
51,08ghd74tvd,54,1,"""uw_710""",3,"""p3""",1,speed,#e81a4b,efficiency,0,2.0,11842.0,abs,within,features,1p3speed,abs,feat1
52,08ghd74tvd,55,1,"""uw_710""",3,"""p8""",1,sleeping,#000000,sleeping,1,4.0,13281.0,abs,within,activities,1p8sleeping,abs,act1
53,08ghd74tvd,55,1,"""uw_710""",3,"""p8""",1,comfort,#a06776,comfort,1,4.0,13281.0,abs,within,features,1p8comfort,abs,feat2
54,08ghd74tvd,55,1,"""uw_710""",3,"""p8""",1,driving,#ea1d1d,driving,1,4.0,13281.0,abs,within,activities,1p8driving,abs,act1
55,08ghd74tvd,55,1,"""uw_710""",3,"""p8""",1,safety,#d0e942,safety,1,4.0,13281.0,abs,within,features,1p8safety,abs,feat2
56,08ghd74tvd,56,1,"""uw_710""",3,"""p4""",1,safety,#d0e942,safety,1,4.0,6701.0,mix,across,features,1p4safety,conc,feat2
57,08ghd74tvd,56,1,"""uw_710""",3,"""p4""",1,celery,#0e8a19,celery,1,4.0,6701.0,mix,across,vegetables,1p4celery,abs,veg2
58,08ghd74tvd,56,1,"""uw_710""",3,"""p4""",1,comfort,#a06776,comfort,1,4.0,6701.0,mix,across,features,1p4comfort,conc,feat2
59,08ghd74tvd,56,1,"""uw_710""",3,"""p4""",1,eggplant,#600b84,eggplant,1,4.0,6701.0,mix,across,vegetables,1p4eggplant,abs,veg2
60,08ghd74tvd,57,1,"""uw_710""",3,"""p1""",1,peach,#f1a78a,peach,1,4.0,7333.0,conc,within,fruits,1p1peach,conc,fruit2
61,08ghd74tvd,57,1,"""uw_710""",3,"""p1""",1,carrot,#cc4f1b,carrot,1,4.0,7333.0,conc,within,vegetables,1p1carrot,conc,veg1
62,08ghd74tvd,57,1,"""uw_710""",3,"""p1""",1,cherry,#ea1d1d,cherry,1,4.0,7333.0,conc,within,fruits,1p1cherry,conc,fruit2
63,08ghd74tvd,57,1,"""uw_710""",3,"""p1""",1,corn,#d5b811,corn,1,4.0,7333.0,conc,within,vegetables,1p1corn,conc,veg1
64,08ghd74tvd,58,1,"""uw_710""",3,"""p5""",1,working,#3b3b3b,working,1,4.0,9552.0,mix,across,activities,1p5working,conc,act2
65,08ghd74tvd,58,1,"""uw_710""",3,"""p5""",1,cherry,#ea1d1d,cherry,1,4.0,9552.0,mix,across,fruits,1p5cherry,abs,fruit2
66,08ghd74tvd,58,1,"""uw_710""",3,"""p5""",1,leisure,#d5a9e4,leisure,1,4.0,9552.0,mix,across,activities,1p5leisure,conc,act2
67,08ghd74tvd,58,1,"""uw_710""",3,"""p5""",1,peach,#f1a78a,peach,1,4.0,9552.0,mix,across,fruits,1p5peach,abs,fruit2
68,08ghd74tvd,59,1,"""uw_710""",3,"""p6""",1,grape,#5e2b3a,grape,1,4.0,5438.0,conc,within,fruits,1p6grape,conc,fruit1
69,08ghd74tvd,59,1,"""uw_710""",3,"""p6""",1,banana,#fcdb42,banana,1,4.0,5438.0,conc,within,fruits,1p6banana,conc,fruit1
70,08ghd74tvd,59,1,"""uw_710""",3,"""p6""",1,celery,#8cf47e,celery,1,4.0,5438.0,conc,within,vegetables,1p6celery,conc,veg2
71,08ghd74tvd,59,1,"""uw_710""",3,"""p6""",1,eggplant,#000000,eggplant,1,4.0,5438.0,conc,within,vegetables,1p6eggplant,conc,veg2
72,08ghd74tvd,60,1,"""uw_710""",3,"""p7""",1,speed,#e81a4b,speed,1,4.0,9250.0,mix,across,features,1p7speed,conc,feat1
73,08ghd74tvd,60,1,"""uw_710""",3,"""p7""",1,carrot,#ac6619,carrot,1,4.0,9250.0,mix,across,vegetables,1p7carrot,abs,veg1
74,08ghd74tvd,60,1,"""uw_710""",3,"""p7""",1,corn,#d0b85a,corn,1,4.0,9250.0,mix,across,vegetables,1p7corn,abs,veg1
75,08ghd74tvd,60,1,"""uw_710""",3,"""p7""",1,efficiency,#5e78a1,efficiency,1,4.0,9250.0,mix,across,features,1p7efficiency,conc,feat1
80,08ghd74tvd,63,1,"""uw_711""",0,"""p8""",2,sleeping,#000000,comfort,0,2.0,11974.0,abs,within,activities,1p8sleeping,abs,act1
81,08ghd74tvd,63,1,"""uw_711""",0,"""p8""",2,safety,#d0e942,safety,1,2.0,11974.0,abs,within,features,1p8safety,abs,feat2
82,08ghd74tvd,63,1,"""uw_711""",0,"""p8""",2,driving,#ea1d1d,driving,1,2.0,11974.0,abs,within,activities,1p8driving,abs,act1
83,08ghd74tvd,63,1,"""uw_711""",0,"""p8""",2,comfort,#a06776,sleeping,0,2.0,11974.0,abs,within,features,1p8comfort,abs,feat2
84,08ghd74tvd,64,1,"""uw_711""",0,"""p7""",2,speed,#e81a4b,efficiency,0,2.0,14861.0,mix,across,features,1p7speed,conc,feat1
85,08ghd74tvd,64,1,"""uw_711""",0,"""p7""",2,efficiency,#5e78a1,speed,0,2.0,14861.0,mix,across,features,1p7efficiency,conc,feat1
86,08ghd74tvd,64,1,"""uw_711""",0,"""p7""",2,corn,#d0b85a,corn,1,2.0,14861.0,mix,across,vegetables,1p7corn,abs,veg1
87,08ghd74tvd,64,1,"""uw_711""",0,"""p7""",2,carrot,#ac6619,carrot,1,2.0,14861.0,mix,across,vegetables,1p7carrot,abs,veg1
88,08ghd74tvd,65,1,"""uw_711""",0,"""p3""",2,working,#3b3b3b,working,1,4.0,8832.0,abs,within,activities,1p3working,abs,act2
89,08ghd74tvd,65,1,"""uw_711""",0,"""p3""",2,speed,#e81a4b,speed,1,4.0,8832.0,abs,within,features,1p3speed,abs,feat1
90,08ghd74tvd,65,1,"""uw_711""",0,"""p3""",2,leisure,#90689f,leisure,1,4.0,8832.0,abs,within,activities,1p3leisure,abs,act2
91,08ghd74tvd,65,1,"""uw_711""",0,"""p3""",2,efficiency,#ffffff,efficiency,1,4.0,8832.0,abs,within,features,1p3efficiency,abs,feat1
92,08ghd74tvd,66,1,"""uw_711""",0,"""p6""",2,grape,#5e2b3a,grape,1,4.0,6595.0,conc,within,fruits,1p6grape,conc,fruit1
93,08ghd74tvd,66,1,"""uw_711""",0,"""p6""",2,eggplant,#000000,eggplant,1,4.0,6595.0,conc,within,vegetables,1p6eggplant,conc,veg2
94,08ghd74tvd,66,1,"""uw_711""",0,"""p6""",2,celery,#8cf47e,celery,1,4.0,6595.0,conc,within,vegetables,1p6celery,conc,veg2
95,08ghd74tvd,66,1,"""uw_711""",0,"""p6""",2,banana,#fcdb42,banana,1,4.0,6595.0,conc,within,fruits,1p6banana,conc,fruit1
96,08ghd74tvd,67,1,"""uw_711""",0,"""p5""",2,working,#3b3b3b,working,1,4.0,8032.0,mix,across,activities,1p5working,conc,act2
97,08ghd74tvd,67,1,"""uw_711""",0,"""p5""",2,peach,#f1a78a,peach,1,4.0,8032.0,mix,across,fruits,1p5peach,abs,fruit2
98,08ghd74tvd,67,1,"""uw_711""",0,"""p5""",2,leisure,#d5a9e4,leisure,1,4.0,8032.0,mix,across,activities,1p5leisure,conc,act2
99,08ghd74tvd,67,1,"""uw_711""",0,"""p5""",2,cherry,#ea1d1d,cherry,1,4.0,8032.0,mix,across,fruits,1p5cherry,abs,fruit2
100,08ghd74tvd,68,1,"""uw_711""",0,"""p2""",2,sleeping,#1c3d61,sleeping,1,4.0,8818.0,mix,across,activities,1p2sleeping,conc,act1
101,08ghd74tvd,68,1,"""uw_711""",0,"""p2""",2,grape,#b62ef2,grape,1,4.0,8818.0,mix,across,fruits,1p2grape,abs,fruit1
102,08ghd74tvd,68,1,"""uw_711""",0,"""p2""",2,driving,#ea1d1d,driving,1,4.0,8818.0,mix,across,activities,1p2driving,conc,act1
103,08ghd74tvd,68,1,"""uw_711""",0,"""p2""",2,banana,#d0b85a,banana,1,4.0,8818.0,mix,across,fruits,1p2banana,abs,fruit1
104,08ghd74tvd,69,1,"""uw_711""",0,"""p4""",2,safety,#d0e942,safety,1,4.0,5833.0,mix,across,features,1p4safety,conc,feat2
105,08ghd74tvd,69,1,"""uw_711""",0,"""p4""",2,eggplant,#600b84,eggplant,1,4.0,5833.0,mix,across,vegetables,1p4eggplant,abs,veg2
106,08ghd74tvd,69,1,"""uw_711""",0,"""p4""",2,comfort,#a06776,comfort,1,4.0,5833.0,mix,across,features,1p4comfort,conc,feat2
107,08ghd74tvd,69,1,"""uw_711""",0,"""p4""",2,celery,#0e8a19,celery,1,4.0,5833.0,mix,across,vegetables,1p4celery,abs,veg2
108,08ghd74tvd,70,1,"""uw_711""",0,"""p1""",2,peach,#f1a78a,peach,1,4.0,6514.0,conc,within,fruits,1p1peach,conc,fruit2
109,08ghd74tvd,70,1,"""uw_711""",0,"""p1""",2,corn,#d5b811,corn,1,4.0,6514.0,conc,within,vegetables,1p1corn,conc,veg1
110,08ghd74tvd,70,1,"""uw_711""",0,"""p1""",2,cherry,#ea1d1d,cherry,1,4.0,6514.0,conc,within,fruits,1p1cherry,conc,fruit2
111,08ghd74tvd,70,1,"""uw_711""",0,"""p1""",2,carrot,#cc4f1b,carrot,1,4.0,6514.0,conc,within,vegetables,1p1carrot,conc,veg1
112,08ghd74tvd,72,1,"""uw_710""",0,"""p7""",3,carrot,#ac6619,carrot,1,4.0,12463.0,mix,across,vegetables,1p7carrot,abs,veg1
113,08ghd74tvd,72,1,"""uw_710""",0,"""p7""",3,corn,#d0b85a,corn,1,4.0,12463.0,mix,across,vegetables,1p7corn,abs,veg1
114,08ghd74tvd,72,1,"""uw_710""",0,"""p7""",3,efficiency,#5e78a1,efficiency,1,4.0,12463.0,mix,across,features,1p7efficiency,conc,feat1
115,08ghd74tvd,72,1,"""uw_710""",0,"""p7""",3,speed,#e81a4b,speed,1,4.0,12463.0,mix,across,features,1p7speed,conc,feat1
120,08ghd74tvd,74,1,"""uw_710""",0,"""p5""",3,cherry,#ea1d1d,cherry,1,4.0,5951.0,mix,across,fruits,1p5cherry,abs,fruit2
121,08ghd74tvd,74,1,"""uw_710""",0,"""p5""",3,leisure,#d5a9e4,leisure,1,4.0,5951.0,mix,across,activities,1p5leisure,conc,act2
122,08ghd74tvd,74,1,"""uw_710""",0,"""p5""",3,peach,#f1a78a,peach,1,4.0,5951.0,mix,across,fruits,1p5peach,abs,fruit2
123,08ghd74tvd,74,1,"""uw_710""",0,"""p5""",3,working,#3b3b3b,working,1,4.0,5951.0,mix,across,activities,1p5working,conc,act2
124,08ghd74tvd,75,1,"""uw_710""",0,"""p2""",3,banana,#d0b85a,banana,1,4.0,8038.0,mix,across,fruits,1p2banana,abs,fruit1
125,08ghd74tvd,75,1,"""uw_710""",0,"""p2""",3,driving,#ea1d1d,driving,1,4.0,8038.0,mix,across,activities,1p2driving,conc,act1
126,08ghd74tvd,75,1,"""uw_710""",0,"""p2""",3,grape,#b62ef2,grape,1,4.0,8038.0,mix,across,fruits,1p2grape,abs,fruit1
127,08ghd74tvd,75,1,"""uw_710""",0,"""p2""",3,sleeping,#1c3d61,sleeping,1,4.0,8038.0,mix,across,activities,1p2sleeping,conc,act1
128,08ghd74tvd,76,1,"""uw_710""",0,"""p4""",3,celery,#0e8a19,celery,1,4.0,9575.0,mix,across,vegetables,1p4celery,abs,veg2
129,08ghd74tvd,76,1,"""uw_710""",0,"""p4""",3,comfort,#a06776,comfort,1,4.0,9575.0,mix,across,features,1p4comfort,conc,feat2
130,08ghd74tvd,76,1,"""uw_710""",0,"""p4""",3,eggplant,#600b84,eggplant,1,4.0,9575.0,mix,across,vegetables,1p4eggplant,abs,veg2
131,08ghd74tvd,76,1,"""uw_710""",0,"""p4""",3,safety,#d0e942,safety,1,4.0,9575.0,mix,across,features,1p4safety,conc,feat2
132,08ghd74tvd,77,1,"""uw_710""",0,"""p1""",3,carrot,#cc4f1b,carrot,1,4.0,7894.0,conc,within,vegetables,1p1carrot,conc,veg1
133,08ghd74tvd,77,1,"""uw_710""",0,"""p1""",3,cherry,#ea1d1d,cherry,1,4.0,7894.0,conc,within,fruits,1p1cherry,conc,fruit2
134,08ghd74tvd,77,1,"""uw_710""",0,"""p1""",3,corn,#d5b811,corn,1,4.0,7894.0,conc,within,vegetables,1p1corn,conc,veg1
135,08ghd74tvd,77,1,"""uw_710""",0,"""p1""",3,peach,#f1a78a,peach,1,4.0,7894.0,conc,within,fruits,1p1peach,conc,fruit2
136,08ghd74tvd,78,1,"""uw_710""",0,"""p6""",3,banana,#fcdb42,banana,1,4.0,6456.0,conc,within,fruits,1p6banana,conc,fruit1
137,08ghd74tvd,78,1,"""uw_710""",0,"""p6""",3,celery,#8cf47e,celery,1,4.0,6456.0,conc,within,vegetables,1p6celery,conc,veg2
138,08ghd74tvd,78,1,"""uw_710""",0,"""p6""",3,eggplant,#000000,eggplant,1,4.0,6456.0,conc,within,vegetables,1p6eggplant,conc,veg2
139,08ghd74tvd,78,1,"""uw_710""",0,"""p6""",3,grape,#5e2b3a,grape,1,4.0,6456.0,conc,within,fruits,1p6grape,conc,fruit1
140,08ghd74tvd,79,1,"""uw_710""",0,"""p3""",3,efficiency,#ffffff,speed,0,2.0,12074.0,abs,within,features,1p3efficiency,abs,feat1
141,08ghd74tvd,79,1,"""uw_710""",0,"""p3""",3,leisure,#90689f,leisure,1,2.0,12074.0,abs,within,activities,1p3leisure,abs,act2
142,08ghd74tvd,79,1,"""uw_710""",0,"""p3""",3,speed,#e81a4b,efficiency,0,2.0,12074.0,abs,within,features,1p3speed,abs,feat1
143,08ghd74tvd,79,1,"""uw_710""",0,"""p3""",3,working,#3b3b3b,working,1,2.0,12074.0,abs,within,activities,1p3working,abs,act2
144,08ghd74tvd,80,1,"""uw_710""",0,"""p8""",3,comfort,#a06776,sleeping,0,2.0,7765.0,abs,within,features,1p8comfort,abs,feat2
145,08ghd74tvd,80,1,"""uw_710""",0,"""p8""",3,driving,#ea1d1d,driving,1,2.0,7765.0,abs,within,activities,1p8driving,abs,act1
146,08ghd74tvd,80,1,"""uw_710""",0,"""p8""",3,safety,#d0e942,safety,1,2.0,7765.0,abs,within,features,1p8safety,abs,feat2
147,08ghd74tvd,80,1,"""uw_710""",0,"""p8""",3,sleeping,#000000,comfort,0,2.0,7765.0,abs,within,activities,1p8sleeping,abs,act1
148,08ghd74tvd,82,1,"""uw_710""",2,"""p3""",4,speed,#e81a4b,efficiency,0,2.0,9330.0,abs,within,features,1p3speed,abs,feat1
149,08ghd74tvd,82,1,"""uw_710""",2,"""p3""",4,working,#3b3b3b,working,1,2.0,9330.0,abs,within,activities,1p3working,abs,act2
150,08ghd74tvd,82,1,"""uw_710""",2,"""p3""",4,efficiency,#ffffff,speed,0,2.0,9330.0,abs,within,features,1p3efficiency,abs,feat1
151,08ghd74tvd,82,1,"""uw_710""",2,"""p3""",4,leisure,#90689f,leisure,1,2.0,9330.0,abs,within,activities,1p3leisure,abs,act2
152,08ghd74tvd,83,1,"""uw_710""",2,"""p5""",4,peach,#f1a78a,peach,1,4.0,5951.0,mix,across,fruits,1p5peach,abs,fruit2
153,08ghd74tvd,83,1,"""uw_710""",2,"""p5""",4,working,#3b3b3b,working,1,4.0,5951.0,mix,across,activities,1p5working,conc,act2
154,08ghd74tvd,83,1,"""uw_710""",2,"""p5""",4,cherry,#ea1d1d,cherry,1,4.0,5951.0,mix,across,fruits,1p5cherry,abs,fruit2
155,08ghd74tvd,83,1,"""uw_710""",2,"""p5""",4,leisure,#d5a9e4,leisure,1,4.0,5951.0,mix,across,activities,1p5leisure,conc,act2
160,08ghd74tvd,85,1,"""uw_710""",2,"""p2""",4,grape,#b62ef2,grape,1,4.0,5881.0,mix,across,fruits,1p2grape,abs,fruit1
161,08ghd74tvd,85,1,"""uw_710""",2,"""p2""",4,sleeping,#1c3d61,sleeping,1,4.0,5881.0,mix,across,activities,1p2sleeping,conc,act1
162,08ghd74tvd,85,1,"""uw_710""",2,"""p2""",4,banana,#d0b85a,banana,1,4.0,5881.0,mix,across,fruits,1p2banana,abs,fruit1
163,08ghd74tvd,85,1,"""uw_710""",2,"""p2""",4,driving,#ea1d1d,driving,1,4.0,5881.0,mix,across,activities,1p2driving,conc,act1
164,08ghd74tvd,86,1,"""uw_710""",2,"""p6""",4,eggplant,#000000,eggplant,1,4.0,5199.0,conc,within,vegetables,1p6eggplant,conc,veg2
165,08ghd74tvd,86,1,"""uw_710""",2,"""p6""",4,grape,#5e2b3a,grape,1,4.0,5199.0,conc,within,fruits,1p6grape,conc,fruit1
166,08ghd74tvd,86,1,"""uw_710""",2,"""p6""",4,banana,#fcdb42,banana,1,4.0,5199.0,conc,within,fruits,1p6banana,conc,fruit1
167,08ghd74tvd,86,1,"""uw_710""",2,"""p6""",4,celery,#8cf47e,celery,1,4.0,5199.0,conc,within,vegetables,1p6celery,conc,veg2
168,08ghd74tvd,87,1,"""uw_710""",2,"""p4""",4,eggplant,#600b84,eggplant,1,4.0,7867.0,mix,across,vegetables,1p4eggplant,abs,veg2
169,08ghd74tvd,87,1,"""uw_710""",2,"""p4""",4,safety,#d0e942,safety,1,4.0,7867.0,mix,across,features,1p4safety,conc,feat2
170,08ghd74tvd,87,1,"""uw_710""",2,"""p4""",4,celery,#0e8a19,celery,1,4.0,7867.0,mix,across,vegetables,1p4celery,abs,veg2
171,08ghd74tvd,87,1,"""uw_710""",2,"""p4""",4,comfort,#a06776,comfort,1,4.0,7867.0,mix,across,features,1p4comfort,conc,feat2
172,08ghd74tvd,88,1,"""uw_710""",2,"""p8""",4,safety,#d0e942,safety,1,4.0,11060.0,abs,within,features,1p8safety,abs,feat2
173,08ghd74tvd,88,1,"""uw_710""",2,"""p8""",4,sleeping,#000000,sleeping,1,4.0,11060.0,abs,within,activities,1p8sleeping,abs,act1
174,08ghd74tvd,88,1,"""uw_710""",2,"""p8""",4,comfort,#a06776,comfort,1,4.0,11060.0,abs,within,features,1p8comfort,abs,feat2
175,08ghd74tvd,88,1,"""uw_710""",2,"""p8""",4,driving,#ea1d1d,driving,1,4.0,11060.0,abs,within,activities,1p8driving,abs,act1
176,08ghd74tvd,89,1,"""uw_710""",2,"""p7""",4,efficiency,#5e78a1,efficiency,1,4.0,12922.0,mix,across,features,1p7efficiency,conc,feat1
177,08ghd74tvd,89,1,"""uw_710""",2,"""p7""",4,speed,#e81a4b,speed,1,4.0,12922.0,mix,across,features,1p7speed,conc,feat1
178,08ghd74tvd,89,1,"""uw_710""",2,"""p7""",4,carrot,#ac6619,carrot,1,4.0,12922.0,mix,across,vegetables,1p7carrot,abs,veg1
179,08ghd74tvd,89,1,"""uw_710""",2,"""p7""",4,corn,#d0b85a,corn,1,4.0,12922.0,mix,across,vegetables,1p7corn,abs,veg1
180,08ghd74tvd,90,1,"""uw_710""",2,"""p1""",4,corn,#d5b811,corn,1,4.0,8871.0,conc,within,vegetables,1p1corn,conc,veg1
181,08ghd74tvd,90,1,"""uw_710""",2,"""p1""",4,peach,#f1a78a,peach,1,4.0,8871.0,conc,within,fruits,1p1peach,conc,fruit2
182,08ghd74tvd,90,1,"""uw_710""",2,"""p1""",4,carrot,#cc4f1b,carrot,1,4.0,8871.0,conc,within,vegetables,1p1carrot,conc,veg1
183,08ghd74tvd,90,1,"""uw_710""",2,"""p1""",4,cherry,#ea1d1d,cherry,1,4.0,8871.0,conc,within,fruits,1p1cherry,conc,fruit2
184,08ghd74tvd,92,1,"""uw_711""",2,"""p8""",5,driving,#ea1d1d,driving,1,4.0,8331.0,abs,within,activities,1p8driving,abs,act1
185,08ghd74tvd,92,1,"""uw_711""",2,"""p8""",5,comfort,#a06776,comfort,1,4.0,8331.0,abs,within,features,1p8comfort,abs,feat2
186,08ghd74tvd,92,1,"""uw_711""",2,"""p8""",5,sleeping,#000000,sleeping,1,4.0,8331.0,abs,within,activities,1p8sleeping,abs,act1
187,08ghd74tvd,92,1,"""uw_711""",2,"""p8""",5,safety,#d0e942,safety,1,4.0,8331.0,abs,within,features,1p8safety,abs,feat2
188,08ghd74tvd,93,1,"""uw_711""",2,"""p5""",5,leisure,#d5a9e4,leisure,1,4.0,7517.0,mix,across,activities,1p5leisure,conc,act2
189,08ghd74tvd,93,1,"""uw_711""",2,"""p5""",5,cherry,#ea1d1d,cherry,1,4.0,7517.0,mix,across,fruits,1p5cherry,abs,fruit2
190,08ghd74tvd,93,1,"""uw_711""",2,"""p5""",5,working,#3b3b3b,working,1,4.0,7517.0,mix,across,activities,1p5working,conc,act2
191,08ghd74tvd,93,1,"""uw_711""",2,"""p5""",5,peach,#f1a78a,peach,1,4.0,7517.0,mix,across,fruits,1p5peach,abs,fruit2
196,08ghd74tvd,95,1,"""uw_711""",2,"""p6""",5,celery,#8cf47e,celery,1,4.0,5658.0,conc,within,vegetables,1p6celery,conc,veg2
197,08ghd74tvd,95,1,"""uw_711""",2,"""p6""",5,banana,#fcdb42,banana,1,4.0,5658.0,conc,within,fruits,1p6banana,conc,fruit1
198,08ghd74tvd,95,1,"""uw_711""",2,"""p6""",5,grape,#5e2b3a,grape,1,4.0,5658.0,conc,within,fruits,1p6grape,conc,fruit1
199,08ghd74tvd,95,1,"""uw_711""",2,"""p6""",5,eggplant,#000000,eggplant,1,4.0,5658.0,conc,within,vegetables,1p6eggplant,conc,veg2
200,08ghd74tvd,96,1,"""uw_711""",2,"""p1""",5,cherry,#ea1d1d,cherry,1,4.0,5831.0,conc,within,fruits,1p1cherry,conc,fruit2
201,08ghd74tvd,96,1,"""uw_711""",2,"""p1""",5,carrot,#cc4f1b,carrot,1,4.0,5831.0,conc,within,vegetables,1p1carrot,conc,veg1
202,08ghd74tvd,96,1,"""uw_711""",2,"""p1""",5,peach,#f1a78a,peach,1,4.0,5831.0,conc,within,fruits,1p1peach,conc,fruit2
203,08ghd74tvd,96,1,"""uw_711""",2,"""p1""",5,corn,#d5b811,corn,1,4.0,5831.0,conc,within,vegetables,1p1corn,conc,veg1
204,08ghd74tvd,97,1,"""uw_711""",2,"""p4""",5,comfort,#a06776,comfort,1,4.0,7619.0,mix,across,features,1p4comfort,conc,feat2
205,08ghd74tvd,97,1,"""uw_711""",2,"""p4""",5,celery,#0e8a19,celery,1,4.0,7619.0,mix,across,vegetables,1p4celery,abs,veg2
206,08ghd74tvd,97,1,"""uw_711""",2,"""p4""",5,safety,#d0e942,safety,1,4.0,7619.0,mix,across,features,1p4safety,conc,feat2
207,08ghd74tvd,97,1,"""uw_711""",2,"""p4""",5,eggplant,#600b84,eggplant,1,4.0,7619.0,mix,across,vegetables,1p4eggplant,abs,veg2
208,08ghd74tvd,98,1,"""uw_711""",2,"""p7""",5,corn,#d0b85a,corn,1,4.0,6165.0,mix,across,vegetables,1p7corn,abs,veg1
209,08ghd74tvd,98,1,"""uw_711""",2,"""p7""",5,carrot,#ac6619,carrot,1,4.0,6165.0,mix,across,vegetables,1p7carrot,abs,veg1
210,08ghd74tvd,98,1,"""uw_711""",2,"""p7""",5,speed,#e81a4b,speed,1,4.0,6165.0,mix,across,features,1p7speed,conc,feat1
211,08ghd74tvd,98,1,"""uw_711""",2,"""p7""",5,efficiency,#5e78a1,efficiency,1,4.0,6165.0,mix,across,features,1p7efficiency,conc,feat1
212,08ghd74tvd,99,1,"""uw_711""",2,"""p3""",5,leisure,#90689f,leisure,1,4.0,5774.0,abs,within,activities,1p3leisure,abs,act2
213,08ghd74tvd,99,1,"""uw_711""",2,"""p3""",5,efficiency,#ffffff,efficiency,1,4.0,5774.0,abs,within,features,1p3efficiency,abs,feat1
214,08ghd74tvd,99,1,"""uw_711""",2,"""p3""",5,working,#3b3b3b,working,1,4.0,5774.0,abs,within,activities,1p3working,abs,act2
215,08ghd74tvd,99,1,"""uw_711""",2,"""p3""",5,speed,#e81a4b,speed,1,4.0,5774.0,abs,within,features,1p3speed,abs,feat1
216,08ghd74tvd,100,1,"""uw_711""",2,"""p2""",5,driving,#ea1d1d,driving,1,4.0,7033.0,mix,across,activities,1p2driving,conc,act1
217,08ghd74tvd,100,1,"""uw_711""",2,"""p2""",5,banana,#d0b85a,banana,1,4.0,7033.0,mix,across,fruits,1p2banana,abs,fruit1
218,08ghd74tvd,100,1,"""uw_711""",2,"""p2""",5,sleeping,#1c3d61,sleeping,1,4.0,7033.0,mix,across,activities,1p2sleeping,conc,act1
219,08ghd74tvd,100,1,"""uw_711""",2,"""p2""",5,grape,#b62ef2,grape,1,4.0,7033.0,mix,across,fruits,1p2grape,abs,fruit1
220,08ghd74tvd,102,1,"""uw_710""",1,"""p5""",6,leisure,#d5a9e4,leisure,1,4.0,6119.0,mix,across,activities,1p5leisure,conc,act2
221,08ghd74tvd,102,1,"""uw_710""",1,"""p5""",6,peach,#f1a78a,peach,1,4.0,6119.0,mix,across,fruits,1p5peach,abs,fruit2
222,08ghd74tvd,102,1,"""uw_710""",1,"""p5""",6,working,#3b3b3b,working,1,4.0,6119.0,mix,across,activities,1p5working,conc,act2
223,08ghd74tvd,102,1,"""uw_710""",1,"""p5""",6,cherry,#ea1d1d,cherry,1,4.0,6119.0,mix,across,fruits,1p5cherry,abs,fruit2
228,08ghd74tvd,104,1,"""uw_710""",1,"""p2""",6,driving,#ea1d1d,driving,1,4.0,6897.0,mix,across,activities,1p2driving,conc,act1
229,08ghd74tvd,104,1,"""uw_710""",1,"""p2""",6,grape,#b62ef2,grape,1,4.0,6897.0,mix,across,fruits,1p2grape,abs,fruit1
230,08ghd74tvd,104,1,"""uw_710""",1,"""p2""",6,sleeping,#1c3d61,sleeping,1,4.0,6897.0,mix,across,activities,1p2sleeping,conc,act1
231,08ghd74tvd,104,1,"""uw_710""",1,"""p2""",6,banana,#d0b85a,banana,1,4.0,6897.0,mix,across,fruits,1p2banana,abs,fruit1
232,08ghd74tvd,105,1,"""uw_710""",1,"""p3""",6,leisure,#90689f,leisure,1,2.0,9847.0,abs,within,activities,1p3leisure,abs,act2
233,08ghd74tvd,105,1,"""uw_710""",1,"""p3""",6,speed,#e81a4b,efficiency,0,2.0,9847.0,abs,within,features,1p3speed,abs,feat1
234,08ghd74tvd,105,1,"""uw_710""",1,"""p3""",6,working,#3b3b3b,working,1,2.0,9847.0,abs,within,activities,1p3working,abs,act2
235,08ghd74tvd,105,1,"""uw_710""",1,"""p3""",6,efficiency,#ffffff,speed,0,2.0,9847.0,abs,within,features,1p3efficiency,abs,feat1
236,08ghd74tvd,106,1,"""uw_710""",1,"""p8""",6,driving,#ea1d1d,driving,1,4.0,6449.0,abs,within,activities,1p8driving,abs,act1
237,08ghd74tvd,106,1,"""uw_710""",1,"""p8""",6,safety,#d0e942,safety,1,4.0,6449.0,abs,within,features,1p8safety,abs,feat2
238,08ghd74tvd,106,1,"""uw_710""",1,"""p8""",6,sleeping,#000000,sleeping,1,4.0,6449.0,abs,within,activities,1p8sleeping,abs,act1
239,08ghd74tvd,106,1,"""uw_710""",1,"""p8""",6,comfort,#a06776,comfort,1,4.0,6449.0,abs,within,features,1p8comfort,abs,feat2
240,08ghd74tvd,107,1,"""uw_710""",1,"""p4""",6,comfort,#a06776,comfort,1,4.0,6541.0,mix,across,features,1p4comfort,conc,feat2
241,08ghd74tvd,107,1,"""uw_710""",1,"""p4""",6,eggplant,#600b84,eggplant,1,4.0,6541.0,mix,across,vegetables,1p4eggplant,abs,veg2
242,08ghd74tvd,107,1,"""uw_710""",1,"""p4""",6,safety,#d0e942,safety,1,4.0,6541.0,mix,across,features,1p4safety,conc,feat2
243,08ghd74tvd,107,1,"""uw_710""",1,"""p4""",6,celery,#0e8a19,celery,1,4.0,6541.0,mix,across,vegetables,1p4celery,abs,veg2
244,08ghd74tvd,108,1,"""uw_710""",1,"""p7""",6,corn,#d0b85a,corn,1,4.0,9227.0,mix,across,vegetables,1p7corn,abs,veg1
245,08ghd74tvd,108,1,"""uw_710""",1,"""p7""",6,efficiency,#5e78a1,efficiency,1,4.0,9227.0,mix,across,features,1p7efficiency,conc,feat1
246,08ghd74tvd,108,1,"""uw_710""",1,"""p7""",6,speed,#e81a4b,speed,1,4.0,9227.0,mix,across,features,1p7speed,conc,feat1
247,08ghd74tvd,108,1,"""uw_710""",1,"""p7""",6,carrot,#ac6619,carrot,1,4.0,9227.0,mix,across,vegetables,1p7carrot,abs,veg1
248,08ghd74tvd,109,1,"""uw_710""",1,"""p6""",6,celery,#8cf47e,celery,1,4.0,12860.0,conc,within,vegetables,1p6celery,conc,veg2
249,08ghd74tvd,109,1,"""uw_710""",1,"""p6""",6,eggplant,#000000,eggplant,1,4.0,12860.0,conc,within,vegetables,1p6eggplant,conc,veg2
250,08ghd74tvd,109,1,"""uw_710""",1,"""p6""",6,grape,#5e2b3a,grape,1,4.0,12860.0,conc,within,fruits,1p6grape,conc,fruit1
251,08ghd74tvd,109,1,"""uw_710""",1,"""p6""",6,banana,#fcdb42,banana,1,4.0,12860.0,conc,within,fruits,1p6banana,conc,fruit1
252,08ghd74tvd,110,1,"""uw_710""",1,"""p1""",6,cherry,#ea1d1d,cherry,1,4.0,6760.0,conc,within,fruits,1p1cherry,conc,fruit2
253,08ghd74tvd,110,1,"""uw_710""",1,"""p1""",6,corn,#d5b811,corn,1,4.0,6760.0,conc,within,vegetables,1p1corn,conc,veg1
254,08ghd74tvd,110,1,"""uw_710""",1,"""p1""",6,peach,#f1a78a,peach,1,4.0,6760.0,conc,within,fruits,1p1peach,conc,fruit2
255,08ghd74tvd,110,1,"""uw_710""",1,"""p1""",6,carrot,#cc4f1b,carrot,1,4.0,6760.0,conc,within,vegetables,1p1carrot,conc,veg1
256,08ghd74tvd,112,1,"""uw_711""",1,"""p7""",7,efficiency,#5e78a1,efficiency,1,4.0,6987.0,mix,across,features,1p7efficiency,conc,feat1
257,08ghd74tvd,112,1,"""uw_711""",1,"""p7""",7,corn,#d0b85a,corn,1,4.0,6987.0,mix,across,vegetables,1p7corn,abs,veg1
258,08ghd74tvd,112,1,"""uw_711""",1,"""p7""",7,carrot,#ac6619,carrot,1,4.0,6987.0,mix,across,vegetables,1p7carrot,abs,veg1
259,08ghd74tvd,112,1,"""uw_711""",1,"""p7""",7,speed,#e81a4b,speed,1,4.0,6987.0,mix,across,features,1p7speed,conc,feat1
260,08ghd74tvd,113,1,"""uw_711""",1,"""p6""",7,eggplant,#000000,eggplant,1,4.0,6288.0,conc,within,vegetables,1p6eggplant,conc,veg2
261,08ghd74tvd,113,1,"""uw_711""",1,"""p6""",7,celery,#8cf47e,celery,1,4.0,6288.0,conc,within,vegetables,1p6celery,conc,veg2
262,08ghd74tvd,113,1,"""uw_711""",1,"""p6""",7,banana,#fcdb42,banana,1,4.0,6288.0,conc,within,fruits,1p6banana,conc,fruit1
263,08ghd74tvd,113,1,"""uw_711""",1,"""p6""",7,grape,#5e2b3a,grape,1,4.0,6288.0,conc,within,fruits,1p6grape,conc,fruit1
264,08ghd74tvd,114,1,"""uw_711""",1,"""p5""",7,peach,#f1a78a,peach,1,4.0,7296.0,mix,across,fruits,1p5peach,abs,fruit2
265,08ghd74tvd,114,1,"""uw_711""",1,"""p5""",7,leisure,#d5a9e4,leisure,1,4.0,7296.0,mix,across,activities,1p5leisure,conc,act2
266,08ghd74tvd,114,1,"""uw_711""",1,"""p5""",7,cherry,#ea1d1d,cherry,1,4.0,7296.0,mix,across,fruits,1p5cherry,abs,fruit2
267,08ghd74tvd,114,1,"""uw_711""",1,"""p5""",7,working,#3b3b3b,working,1,4.0,7296.0,mix,across,activities,1p5working,conc,act2
268,08ghd74tvd,115,1,"""uw_711""",1,"""p1""",7,corn,#d5b811,corn,1,4.0,5077.0,conc,within,vegetables,1p1corn,conc,veg1
269,08ghd74tvd,115,1,"""uw_711""",1,"""p1""",7,cherry,#ea1d1d,cherry,1,4.0,5077.0,conc,within,fruits,1p1cherry,conc,fruit2
270,08ghd74tvd,115,1,"""uw_711""",1,"""p1""",7,carrot,#cc4f1b,carrot,1,4.0,5077.0,conc,within,vegetables,1p1carrot,conc,veg1
271,08ghd74tvd,115,1,"""uw_711""",1,"""p1""",7,peach,#f1a78a,peach,1,4.0,5077.0,conc,within,fruits,1p1peach,conc,fruit2
272,08ghd74tvd,116,1,"""uw_711""",1,"""p3""",7,speed,#e81a4b,efficiency,0,2.0,8626.0,abs,within,features,1p3speed,abs,feat1
273,08ghd74tvd,116,1,"""uw_711""",1,"""p3""",7,leisure,#90689f,leisure,1,2.0,8626.0,abs,within,activities,1p3leisure,abs,act2
274,08ghd74tvd,116,1,"""uw_711""",1,"""p3""",7,efficiency,#ffffff,speed,0,2.0,8626.0,abs,within,features,1p3efficiency,abs,feat1
275,08ghd74tvd,116,1,"""uw_711""",1,"""p3""",7,working,#3b3b3b,working,1,2.0,8626.0,abs,within,activities,1p3working,abs,act2
280,08ghd74tvd,118,1,"""uw_711""",1,"""p4""",7,eggplant,#600b84,eggplant,1,4.0,7861.0,mix,across,vegetables,1p4eggplant,abs,veg2
281,08ghd74tvd,118,1,"""uw_711""",1,"""p4""",7,comfort,#a06776,comfort,1,4.0,7861.0,mix,across,features,1p4comfort,conc,feat2
282,08ghd74tvd,118,1,"""uw_711""",1,"""p4""",7,celery,#0e8a19,celery,1,4.0,7861.0,mix,across,vegetables,1p4celery,abs,veg2
283,08ghd74tvd,118,1,"""uw_711""",1,"""p4""",7,safety,#d0e942,safety,1,4.0,7861.0,mix,across,features,1p4safety,conc,feat2
284,08ghd74tvd,119,1,"""uw_711""",1,"""p2""",7,grape,#b62ef2,grape,1,4.0,6291.0,mix,across,fruits,1p2grape,abs,fruit1
285,08ghd74tvd,119,1,"""uw_711""",1,"""p2""",7,driving,#ea1d1d,driving,1,4.0,6291.0,mix,across,activities,1p2driving,conc,act1
286,08ghd74tvd,119,1,"""uw_711""",1,"""p2""",7,banana,#d0b85a,banana,1,4.0,6291.0,mix,across,fruits,1p2banana,abs,fruit1
287,08ghd74tvd,119,1,"""uw_711""",1,"""p2""",7,sleeping,#1c3d61,sleeping,1,4.0,6291.0,mix,across,activities,1p2sleeping,conc,act1
288,08ghd74tvd,120,1,"""uw_711""",1,"""p8""",7,safety,#d0e942,safety,1,4.0,12515.0,abs,within,features,1p8safety,abs,feat2
289,08ghd74tvd,120,1,"""uw_711""",1,"""p8""",7,driving,#ea1d1d,driving,1,4.0,12515.0,abs,within,activities,1p8driving,abs,act1
290,08ghd74tvd,120,1,"""uw_711""",1,"""p8""",7,comfort,#a06776,comfort,1,4.0,12515.0,abs,within,features,1p8comfort,abs,feat2
291,08ghd74tvd,120,1,"""uw_711""",1,"""p8""",7,sleeping,#000000,sleeping,1,4.0,12515.0,abs,within,activities,1p8sleeping,abs,act1
296,gabo4zuk24,129,0,"""uw_710""",0,"""p4""",0,celery,#608218,eggplant,0,2.0,18702.0,mix,across,vegetables,0p4celery,abs,veg2
297,gabo4zuk24,129,0,"""uw_710""",0,"""p4""",0,efficiency,#5e78a1,efficiency,1,2.0,18702.0,mix,across,features,0p4efficiency,conc,feat1
298,gabo4zuk24,129,0,"""uw_710""",0,"""p4""",0,eggplant,#600b84,celery,0,2.0,18702.0,mix,across,vegetables,0p4eggplant,abs,veg2
299,gabo4zuk24,129,0,"""uw_710""",0,"""p4""",0,speed,#e81a4b,speed,1,2.0,18702.0,mix,across,features,0p4speed,conc,feat1
300,gabo4zuk24,130,0,"""uw_710""",0,"""p8""",0,driving,#184415,sleeping,0,1.0,10621.0,mix,across,activities,0p8driving,conc,act1
301,gabo4zuk24,130,0,"""uw_710""",0,"""p8""",0,efficiency,#7ec6ba,driving,0,1.0,10621.0,mix,across,features,0p8efficiency,conc,feat1
302,gabo4zuk24,130,0,"""uw_710""",0,"""p8""",0,sleeping,#512d5f,efficiency,0,1.0,10621.0,mix,across,activities,0p8sleeping,conc,act1
303,gabo4zuk24,130,0,"""uw_710""",0,"""p8""",0,speed,#e81a4b,speed,1,1.0,10621.0,mix,across,features,0p8speed,conc,feat1
304,gabo4zuk24,131,0,"""uw_710""",0,"""p6""",0,celery,#73cf10,eggplant,0,2.0,9051.0,conc,within,vegetables,0p6celery,conc,veg2
305,gabo4zuk24,131,0,"""uw_710""",0,"""p6""",0,cherry,#ea1d1d,cherry,1,2.0,9051.0,conc,within,fruits,0p6cherry,conc,fruit2
306,gabo4zuk24,131,0,"""uw_710""",0,"""p6""",0,eggplant,#600b84,celery,0,2.0,9051.0,conc,within,vegetables,0p6eggplant,conc,veg2
307,gabo4zuk24,131,0,"""uw_710""",0,"""p6""",0,peach,#f7a75a,peach,1,2.0,9051.0,conc,within,fruits,0p6peach,conc,fruit2
312,gabo4zuk24,133,0,"""uw_710""",0,"""p5""",0,banana,#fcdb42,banana,1,2.0,9956.0,mix,across,fruits,0p5banana,abs,fruit1
313,gabo4zuk24,133,0,"""uw_710""",0,"""p5""",0,grape,#600b84,grape,1,2.0,9956.0,mix,across,fruits,0p5grape,abs,fruit1
314,gabo4zuk24,133,0,"""uw_710""",0,"""p5""",0,leisure,#a0bae6,working,0,2.0,9956.0,mix,across,activities,0p5leisure,conc,act2
315,gabo4zuk24,133,0,"""uw_710""",0,"""p5""",0,working,#3b3b3b,leisure,0,2.0,9956.0,mix,across,activities,0p5working,conc,act2
316,gabo4zuk24,134,0,"""uw_710""",0,"""p1""",0,banana,#d0b85a,banana,1,4.0,18466.0,conc,within,fruits,0p1banana,conc,fruit1
317,gabo4zuk24,134,0,"""uw_710""",0,"""p1""",0,carrot,#cc4f1b,carrot,1,4.0,18466.0,conc,within,vegetables,0p1carrot,conc,veg1
318,gabo4zuk24,134,0,"""uw_710""",0,"""p1""",0,corn,#ffffff,corn,1,4.0,18466.0,conc,within,vegetables,0p1corn,conc,veg1
319,gabo4zuk24,134,0,"""uw_710""",0,"""p1""",0,grape,#512d5f,grape,1,4.0,18466.0,conc,within,fruits,0p1grape,conc,fruit1
320,gabo4zuk24,135,0,"""uw_710""",0,"""p7""",0,carrot,#cc4f1b,carrot,1,4.0,11487.0,abs,within,vegetables,0p7carrot,abs,veg1
321,gabo4zuk24,135,0,"""uw_710""",0,"""p7""",0,comfort,#a06776,comfort,1,4.0,11487.0,abs,within,features,0p7comfort,abs,feat2
322,gabo4zuk24,135,0,"""uw_710""",0,"""p7""",0,corn,#fcdb42,corn,1,4.0,11487.0,abs,within,vegetables,0p7corn,abs,veg1
323,gabo4zuk24,135,0,"""uw_710""",0,"""p7""",0,safety,#55824d,safety,1,4.0,11487.0,abs,within,features,0p7safety,abs,feat2
324,gabo4zuk24,136,0,"""uw_710""",0,"""p2""",0,cherry,#ea1d1d,cherry,1,1.0,20436.0,mix,across,fruits,0p2cherry,abs,fruit2
325,gabo4zuk24,136,0,"""uw_710""",0,"""p2""",0,driving,#3efe44,peach,0,1.0,20436.0,mix,across,activities,0p2driving,conc,act1
326,gabo4zuk24,136,0,"""uw_710""",0,"""p2""",0,peach,#f1a78a,sleeping,0,1.0,20436.0,mix,across,fruits,0p2peach,abs,fruit2
327,gabo4zuk24,136,0,"""uw_710""",0,"""p2""",0,sleeping,#512d5f,driving,0,1.0,20436.0,mix,across,activities,0p2sleeping,conc,act1
328,gabo4zuk24,137,0,"""uw_710""",0,"""p3""",0,comfort,#a06776,leisure,0,0.0,10273.0,abs,within,features,0p3comfort,abs,feat2
329,gabo4zuk24,137,0,"""uw_710""",0,"""p3""",0,working,#000000,safety,0,0.0,10273.0,abs,within,activities,0p3working,abs,act2
330,gabo4zuk24,137,0,"""uw_710""",0,"""p3""",0,safety,#55824d,working,0,0.0,10273.0,abs,within,features,0p3safety,abs,feat2
331,gabo4zuk24,137,0,"""uw_710""",0,"""p3""",0,leisure,#e81a4b,comfort,0,0.0,10273.0,abs,within,activities,0p3leisure,abs,act2
332,gabo4zuk24,139,0,"""uw_710""",2,"""p5""",1,leisure,#a0bae6,leisure,1,4.0,7646.0,mix,across,activities,0p5leisure,conc,act2
333,gabo4zuk24,139,0,"""uw_710""",2,"""p5""",1,working,#3b3b3b,working,1,4.0,7646.0,mix,across,activities,0p5working,conc,act2
334,gabo4zuk24,139,0,"""uw_710""",2,"""p5""",1,banana,#fcdb42,banana,1,4.0,7646.0,mix,across,fruits,0p5banana,abs,fruit1
335,gabo4zuk24,139,0,"""uw_710""",2,"""p5""",1,grape,#600b84,grape,1,4.0,7646.0,mix,across,fruits,0p5grape,abs,fruit1
336,gabo4zuk24,140,0,"""uw_710""",2,"""p7""",1,corn,#fcdb42,corn,1,4.0,10768.0,abs,within,vegetables,0p7corn,abs,veg1
337,gabo4zuk24,140,0,"""uw_710""",2,"""p7""",1,safety,#55824d,safety,1,4.0,10768.0,abs,within,features,0p7safety,abs,feat2
338,gabo4zuk24,140,0,"""uw_710""",2,"""p7""",1,carrot,#cc4f1b,carrot,1,4.0,10768.0,abs,within,vegetables,0p7carrot,abs,veg1
339,gabo4zuk24,140,0,"""uw_710""",2,"""p7""",1,comfort,#a06776,comfort,1,4.0,10768.0,abs,within,features,0p7comfort,abs,feat2
340,gabo4zuk24,141,0,"""uw_710""",2,"""p8""",1,sleeping,#512d5f,efficiency,0,0.0,11000.0,mix,across,activities,0p8sleeping,conc,act1
341,gabo4zuk24,141,0,"""uw_710""",2,"""p8""",1,speed,#e81a4b,driving,0,0.0,11000.0,mix,across,features,0p8speed,conc,feat1
342,gabo4zuk24,141,0,"""uw_710""",2,"""p8""",1,driving,#184415,sleeping,0,0.0,11000.0,mix,across,activities,0p8driving,conc,act1
343,gabo4zuk24,141,0,"""uw_710""",2,"""p8""",1,efficiency,#7ec6ba,speed,0,0.0,11000.0,mix,across,features,0p8efficiency,conc,feat1
344,gabo4zuk24,142,0,"""uw_710""",2,"""p2""",1,peach,#f1a78a,peach,1,4.0,13667.0,mix,across,fruits,0p2peach,abs,fruit2
345,gabo4zuk24,142,0,"""uw_710""",2,"""p2""",1,sleeping,#512d5f,sleeping,1,4.0,13667.0,mix,across,activities,0p2sleeping,conc,act1
346,gabo4zuk24,142,0,"""uw_710""",2,"""p2""",1,cherry,#ea1d1d,cherry,1,4.0,13667.0,mix,across,fruits,0p2cherry,abs,fruit2
347,gabo4zuk24,142,0,"""uw_710""",2,"""p2""",1,driving,#3efe44,driving,1,4.0,13667.0,mix,across,activities,0p2driving,conc,act1
352,gabo4zuk24,144,0,"""uw_710""",2,"""p3""",1,safety,#55824d,working,0,0.0,14469.0,abs,within,features,0p3safety,abs,feat2
353,gabo4zuk24,144,0,"""uw_710""",2,"""p3""",1,leisure,#e81a4b,comfort,0,0.0,14469.0,abs,within,activities,0p3leisure,abs,act2
354,gabo4zuk24,144,0,"""uw_710""",2,"""p3""",1,comfort,#a06776,leisure,0,0.0,14469.0,abs,within,features,0p3comfort,abs,feat2
355,gabo4zuk24,144,0,"""uw_710""",2,"""p3""",1,working,#000000,safety,0,0.0,14469.0,abs,within,activities,0p3working,abs,act2
356,gabo4zuk24,145,0,"""uw_710""",2,"""p4""",1,eggplant,#600b84,efficiency,0,1.0,6732.0,mix,across,vegetables,0p4eggplant,abs,veg2
357,gabo4zuk24,145,0,"""uw_710""",2,"""p4""",1,speed,#e81a4b,speed,1,1.0,6732.0,mix,across,features,0p4speed,conc,feat1
358,gabo4zuk24,145,0,"""uw_710""",2,"""p4""",1,celery,#608218,eggplant,0,1.0,6732.0,mix,across,vegetables,0p4celery,abs,veg2
359,gabo4zuk24,145,0,"""uw_710""",2,"""p4""",1,efficiency,#5e78a1,celery,0,1.0,6732.0,mix,across,features,0p4efficiency,conc,feat1
360,gabo4zuk24,146,0,"""uw_710""",2,"""p6""",1,eggplant,#600b84,celery,0,2.0,8696.0,conc,within,vegetables,0p6eggplant,conc,veg2
361,gabo4zuk24,146,0,"""uw_710""",2,"""p6""",1,peach,#f7a75a,peach,1,2.0,8696.0,conc,within,fruits,0p6peach,conc,fruit2
362,gabo4zuk24,146,0,"""uw_710""",2,"""p6""",1,celery,#73cf10,eggplant,0,2.0,8696.0,conc,within,vegetables,0p6celery,conc,veg2
363,gabo4zuk24,146,0,"""uw_710""",2,"""p6""",1,cherry,#ea1d1d,cherry,1,2.0,8696.0,conc,within,fruits,0p6cherry,conc,fruit2
364,gabo4zuk24,147,0,"""uw_710""",2,"""p1""",1,corn,#ffffff,corn,1,4.0,7227.0,conc,within,vegetables,0p1corn,conc,veg1
365,gabo4zuk24,147,0,"""uw_710""",2,"""p1""",1,grape,#512d5f,grape,1,4.0,7227.0,conc,within,fruits,0p1grape,conc,fruit1
366,gabo4zuk24,147,0,"""uw_710""",2,"""p1""",1,banana,#d0b85a,banana,1,4.0,7227.0,conc,within,fruits,0p1banana,conc,fruit1
367,gabo4zuk24,147,0,"""uw_710""",2,"""p1""",1,carrot,#cc4f1b,carrot,1,4.0,7227.0,conc,within,vegetables,0p1carrot,conc,veg1
368,gabo4zuk24,149,0,"""uw_710""",3,"""p6""",2,peach,#f7a75a,peach,1,2.0,10775.0,conc,within,fruits,0p6peach,conc,fruit2
369,gabo4zuk24,149,0,"""uw_710""",3,"""p6""",2,celery,#73cf10,eggplant,0,2.0,10775.0,conc,within,vegetables,0p6celery,conc,veg2
370,gabo4zuk24,149,0,"""uw_710""",3,"""p6""",2,cherry,#ea1d1d,cherry,1,2.0,10775.0,conc,within,fruits,0p6cherry,conc,fruit2
371,gabo4zuk24,149,0,"""uw_710""",3,"""p6""",2,eggplant,#600b84,celery,0,2.0,10775.0,conc,within,vegetables,0p6eggplant,conc,veg2
372,gabo4zuk24,150,0,"""uw_710""",3,"""p5""",2,working,#3b3b3b,working,1,4.0,6450.0,mix,across,activities,0p5working,conc,act2
373,gabo4zuk24,150,0,"""uw_710""",3,"""p5""",2,banana,#fcdb42,banana,1,4.0,6450.0,mix,across,fruits,0p5banana,abs,fruit1
374,gabo4zuk24,150,0,"""uw_710""",3,"""p5""",2,grape,#600b84,grape,1,4.0,6450.0,mix,across,fruits,0p5grape,abs,fruit1
375,gabo4zuk24,150,0,"""uw_710""",3,"""p5""",2,leisure,#a0bae6,leisure,1,4.0,6450.0,mix,across,activities,0p5leisure,conc,act2
376,gabo4zuk24,151,0,"""uw_710""",3,"""p2""",2,sleeping,#512d5f,sleeping,1,4.0,8782.0,mix,across,activities,0p2sleeping,conc,act1
377,gabo4zuk24,151,0,"""uw_710""",3,"""p2""",2,cherry,#ea1d1d,cherry,1,4.0,8782.0,mix,across,fruits,0p2cherry,abs,fruit2
378,gabo4zuk24,151,0,"""uw_710""",3,"""p2""",2,driving,#3efe44,driving,1,4.0,8782.0,mix,across,activities,0p2driving,conc,act1
379,gabo4zuk24,151,0,"""uw_710""",3,"""p2""",2,peach,#f1a78a,peach,1,4.0,8782.0,mix,across,fruits,0p2peach,abs,fruit2
384,gabo4zuk24,153,0,"""uw_710""",3,"""p1""",2,grape,#512d5f,grape,1,4.0,6659.0,conc,within,fruits,0p1grape,conc,fruit1
385,gabo4zuk24,153,0,"""uw_710""",3,"""p1""",2,banana,#d0b85a,banana,1,4.0,6659.0,conc,within,fruits,0p1banana,conc,fruit1
386,gabo4zuk24,153,0,"""uw_710""",3,"""p1""",2,carrot,#cc4f1b,carrot,1,4.0,6659.0,conc,within,vegetables,0p1carrot,conc,veg1
387,gabo4zuk24,153,0,"""uw_710""",3,"""p1""",2,corn,#ffffff,corn,1,4.0,6659.0,conc,within,vegetables,0p1corn,conc,veg1
388,gabo4zuk24,154,0,"""uw_710""",3,"""p8""",2,speed,#e81a4b,speed,1,2.0,9235.0,mix,across,features,0p8speed,conc,feat1
389,gabo4zuk24,154,0,"""uw_710""",3,"""p8""",2,driving,#184415,efficiency,0,2.0,9235.0,mix,across,activities,0p8driving,conc,act1
390,gabo4zuk24,154,0,"""uw_710""",3,"""p8""",2,efficiency,#7ec6ba,driving,0,2.0,9235.0,mix,across,features,0p8efficiency,conc,feat1
391,gabo4zuk24,154,0,"""uw_710""",3,"""p8""",2,sleeping,#512d5f,sleeping,1,2.0,9235.0,mix,across,activities,0p8sleeping,conc,act1
392,gabo4zuk24,155,0,"""uw_710""",3,"""p4""",2,speed,#e81a4b,speed,1,1.0,10527.0,mix,across,features,0p4speed,conc,feat1
393,gabo4zuk24,155,0,"""uw_710""",3,"""p4""",2,celery,#608218,eggplant,0,1.0,10527.0,mix,across,vegetables,0p4celery,abs,veg2
394,gabo4zuk24,155,0,"""uw_710""",3,"""p4""",2,efficiency,#5e78a1,celery,0,1.0,10527.0,mix,across,features,0p4efficiency,conc,feat1
395,gabo4zuk24,155,0,"""uw_710""",3,"""p4""",2,eggplant,#600b84,efficiency,0,1.0,10527.0,mix,across,vegetables,0p4eggplant,abs,veg2
396,gabo4zuk24,156,0,"""uw_710""",3,"""p7""",2,safety,#55824d,comfort,0,2.0,9886.0,abs,within,features,0p7safety,abs,feat2
397,gabo4zuk24,156,0,"""uw_710""",3,"""p7""",2,carrot,#cc4f1b,carrot,1,2.0,9886.0,abs,within,vegetables,0p7carrot,abs,veg1
398,gabo4zuk24,156,0,"""uw_710""",3,"""p7""",2,comfort,#a06776,safety,0,2.0,9886.0,abs,within,features,0p7comfort,abs,feat2
399,gabo4zuk24,156,0,"""uw_710""",3,"""p7""",2,corn,#fcdb42,corn,1,2.0,9886.0,abs,within,vegetables,0p7corn,abs,veg1
400,gabo4zuk24,157,0,"""uw_710""",3,"""p3""",2,leisure,#e81a4b,comfort,0,1.0,7842.0,abs,within,activities,0p3leisure,abs,act2
401,gabo4zuk24,157,0,"""uw_710""",3,"""p3""",2,comfort,#a06776,safety,0,1.0,7842.0,abs,within,features,0p3comfort,abs,feat2
402,gabo4zuk24,157,0,"""uw_710""",3,"""p3""",2,working,#000000,working,1,1.0,7842.0,abs,within,activities,0p3working,abs,act2
403,gabo4zuk24,157,0,"""uw_710""",3,"""p3""",2,safety,#55824d,leisure,0,1.0,7842.0,abs,within,features,0p3safety,abs,feat2
404,gabo4zuk24,159,0,"""uw_711""",2,"""p1""",3,carrot,#cc4f1b,carrot,1,4.0,8844.0,conc,within,vegetables,0p1carrot,conc,veg1
405,gabo4zuk24,159,0,"""uw_711""",2,"""p1""",3,banana,#d0b85a,banana,1,4.0,8844.0,conc,within,fruits,0p1banana,conc,fruit1
406,gabo4zuk24,159,0,"""uw_711""",2,"""p1""",3,grape,#512d5f,grape,1,4.0,8844.0,conc,within,fruits,0p1grape,conc,fruit1
407,gabo4zuk24,159,0,"""uw_711""",2,"""p1""",3,corn,#ffffff,corn,1,4.0,8844.0,conc,within,vegetables,0p1corn,conc,veg1
408,gabo4zuk24,160,0,"""uw_711""",2,"""p7""",3,comfort,#a06776,comfort,1,4.0,6515.0,abs,within,features,0p7comfort,abs,feat2
409,gabo4zuk24,160,0,"""uw_711""",2,"""p7""",3,carrot,#cc4f1b,carrot,1,4.0,6515.0,abs,within,vegetables,0p7carrot,abs,veg1
410,gabo4zuk24,160,0,"""uw_711""",2,"""p7""",3,safety,#55824d,safety,1,4.0,6515.0,abs,within,features,0p7safety,abs,feat2
411,gabo4zuk24,160,0,"""uw_711""",2,"""p7""",3,corn,#fcdb42,corn,1,4.0,6515.0,abs,within,vegetables,0p7corn,abs,veg1
412,gabo4zuk24,161,0,"""uw_711""",2,"""p8""",3,efficiency,#7ec6ba,efficiency,1,2.0,7657.0,mix,across,features,0p8efficiency,conc,feat1
413,gabo4zuk24,161,0,"""uw_711""",2,"""p8""",3,driving,#184415,sleeping,0,2.0,7657.0,mix,across,activities,0p8driving,conc,act1
414,gabo4zuk24,161,0,"""uw_711""",2,"""p8""",3,speed,#e81a4b,speed,1,2.0,7657.0,mix,across,features,0p8speed,conc,feat1
415,gabo4zuk24,161,0,"""uw_711""",2,"""p8""",3,sleeping,#512d5f,driving,0,2.0,7657.0,mix,across,activities,0p8sleeping,conc,act1
416,gabo4zuk24,162,0,"""uw_711""",2,"""p4""",3,efficiency,#5e78a1,efficiency,1,2.0,11432.0,mix,across,features,0p4efficiency,conc,feat1
417,gabo4zuk24,162,0,"""uw_711""",2,"""p4""",3,celery,#608218,eggplant,0,2.0,11432.0,mix,across,vegetables,0p4celery,abs,veg2
418,gabo4zuk24,162,0,"""uw_711""",2,"""p4""",3,speed,#e81a4b,speed,1,2.0,11432.0,mix,across,features,0p4speed,conc,feat1
419,gabo4zuk24,162,0,"""uw_711""",2,"""p4""",3,eggplant,#600b84,celery,0,2.0,11432.0,mix,across,vegetables,0p4eggplant,abs,veg2
420,gabo4zuk24,163,0,"""uw_711""",2,"""p6""",3,cherry,#ea1d1d,cherry,1,2.0,7866.0,conc,within,fruits,0p6cherry,conc,fruit2
421,gabo4zuk24,163,0,"""uw_711""",2,"""p6""",3,celery,#73cf10,eggplant,0,2.0,7866.0,conc,within,vegetables,0p6celery,conc,veg2
422,gabo4zuk24,163,0,"""uw_711""",2,"""p6""",3,peach,#f7a75a,peach,1,2.0,7866.0,conc,within,fruits,0p6peach,conc,fruit2
423,gabo4zuk24,163,0,"""uw_711""",2,"""p6""",3,eggplant,#600b84,celery,0,2.0,7866.0,conc,within,vegetables,0p6eggplant,conc,veg2
424,gabo4zuk24,164,0,"""uw_711""",2,"""p5""",3,grape,#600b84,grape,1,2.0,10087.0,mix,across,fruits,0p5grape,abs,fruit1
425,gabo4zuk24,164,0,"""uw_711""",2,"""p5""",3,banana,#fcdb42,banana,1,2.0,10087.0,mix,across,fruits,0p5banana,abs,fruit1
426,gabo4zuk24,164,0,"""uw_711""",2,"""p5""",3,working,#3b3b3b,leisure,0,2.0,10087.0,mix,across,activities,0p5working,conc,act2
427,gabo4zuk24,164,0,"""uw_711""",2,"""p5""",3,leisure,#a0bae6,working,0,2.0,10087.0,mix,across,activities,0p5leisure,conc,act2
428,gabo4zuk24,165,0,"""uw_711""",2,"""p3""",3,working,#000000,working,1,2.0,8565.0,abs,within,activities,0p3working,abs,act2
429,gabo4zuk24,165,0,"""uw_711""",2,"""p3""",3,comfort,#a06776,safety,0,2.0,8565.0,abs,within,features,0p3comfort,abs,feat2
430,gabo4zuk24,165,0,"""uw_711""",2,"""p3""",3,leisure,#e81a4b,leisure,1,2.0,8565.0,abs,within,activities,0p3leisure,abs,act2
431,gabo4zuk24,165,0,"""uw_711""",2,"""p3""",3,safety,#55824d,comfort,0,2.0,8565.0,abs,within,features,0p3safety,abs,feat2
436,gabo4zuk24,167,0,"""uw_711""",2,"""p2""",3,driving,#3efe44,driving,1,4.0,10167.0,mix,across,activities,0p2driving,conc,act1
437,gabo4zuk24,167,0,"""uw_711""",2,"""p2""",3,cherry,#ea1d1d,cherry,1,4.0,10167.0,mix,across,fruits,0p2cherry,abs,fruit2
438,gabo4zuk24,167,0,"""uw_711""",2,"""p2""",3,sleeping,#512d5f,sleeping,1,4.0,10167.0,mix,across,activities,0p2sleeping,conc,act1
439,gabo4zuk24,167,0,"""uw_711""",2,"""p2""",3,peach,#f1a78a,peach,1,4.0,10167.0,mix,across,fruits,0p2peach,abs,fruit2
440,gabo4zuk24,169,0,"""uw_711""",1,"""p7""",4,corn,#fcdb42,corn,1,4.0,11067.0,abs,within,vegetables,0p7corn,abs,veg1
441,gabo4zuk24,169,0,"""uw_711""",1,"""p7""",4,comfort,#a06776,comfort,1,4.0,11067.0,abs,within,features,0p7comfort,abs,feat2
442,gabo4zuk24,169,0,"""uw_711""",1,"""p7""",4,carrot,#cc4f1b,carrot,1,4.0,11067.0,abs,within,vegetables,0p7carrot,abs,veg1
443,gabo4zuk24,169,0,"""uw_711""",1,"""p7""",4,safety,#55824d,safety,1,4.0,11067.0,abs,within,features,0p7safety,abs,feat2
448,gabo4zuk24,171,0,"""uw_711""",1,"""p4""",4,eggplant,#600b84,efficiency,0,1.0,7904.0,mix,across,vegetables,0p4eggplant,abs,veg2
449,gabo4zuk24,171,0,"""uw_711""",1,"""p4""",4,efficiency,#5e78a1,celery,0,1.0,7904.0,mix,across,features,0p4efficiency,conc,feat1
450,gabo4zuk24,171,0,"""uw_711""",1,"""p4""",4,celery,#608218,eggplant,0,1.0,7904.0,mix,across,vegetables,0p4celery,abs,veg2
451,gabo4zuk24,171,0,"""uw_711""",1,"""p4""",4,speed,#e81a4b,speed,1,1.0,7904.0,mix,across,features,0p4speed,conc,feat1
452,gabo4zuk24,172,0,"""uw_711""",1,"""p3""",4,safety,#55824d,leisure,0,2.0,7891.0,abs,within,features,0p3safety,abs,feat2
453,gabo4zuk24,172,0,"""uw_711""",1,"""p3""",4,working,#000000,working,1,2.0,7891.0,abs,within,activities,0p3working,abs,act2
454,gabo4zuk24,172,0,"""uw_711""",1,"""p3""",4,comfort,#a06776,comfort,1,2.0,7891.0,abs,within,features,0p3comfort,abs,feat2
455,gabo4zuk24,172,0,"""uw_711""",1,"""p3""",4,leisure,#e81a4b,safety,0,2.0,7891.0,abs,within,activities,0p3leisure,abs,act2
456,gabo4zuk24,173,0,"""uw_711""",1,"""p2""",4,peach,#f1a78a,peach,1,4.0,10626.0,mix,across,fruits,0p2peach,abs,fruit2
457,gabo4zuk24,173,0,"""uw_711""",1,"""p2""",4,driving,#3efe44,driving,1,4.0,10626.0,mix,across,activities,0p2driving,conc,act1
458,gabo4zuk24,173,0,"""uw_711""",1,"""p2""",4,cherry,#ea1d1d,cherry,1,4.0,10626.0,mix,across,fruits,0p2cherry,abs,fruit2
459,gabo4zuk24,173,0,"""uw_711""",1,"""p2""",4,sleeping,#512d5f,sleeping,1,4.0,10626.0,mix,across,activities,0p2sleeping,conc,act1
460,gabo4zuk24,174,0,"""uw_711""",1,"""p6""",4,eggplant,#600b84,celery,0,2.0,7005.0,conc,within,vegetables,0p6eggplant,conc,veg2
461,gabo4zuk24,174,0,"""uw_711""",1,"""p6""",4,cherry,#ea1d1d,cherry,1,2.0,7005.0,conc,within,fruits,0p6cherry,conc,fruit2
462,gabo4zuk24,174,0,"""uw_711""",1,"""p6""",4,celery,#73cf10,eggplant,0,2.0,7005.0,conc,within,vegetables,0p6celery,conc,veg2
463,gabo4zuk24,174,0,"""uw_711""",1,"""p6""",4,peach,#f7a75a,peach,1,2.0,7005.0,conc,within,fruits,0p6peach,conc,fruit2
464,gabo4zuk24,175,0,"""uw_711""",1,"""p5""",4,leisure,#a0bae6,working,0,2.0,8000.0,mix,across,activities,0p5leisure,conc,act2
465,gabo4zuk24,175,0,"""uw_711""",1,"""p5""",4,grape,#600b84,grape,1,2.0,8000.0,mix,across,fruits,0p5grape,abs,fruit1
466,gabo4zuk24,175,0,"""uw_711""",1,"""p5""",4,banana,#fcdb42,banana,1,2.0,8000.0,mix,across,fruits,0p5banana,abs,fruit1
467,gabo4zuk24,175,0,"""uw_711""",1,"""p5""",4,working,#3b3b3b,leisure,0,2.0,8000.0,mix,across,activities,0p5working,conc,act2
468,gabo4zuk24,176,0,"""uw_711""",1,"""p8""",4,sleeping,#512d5f,efficiency,0,0.0,9360.0,mix,across,activities,0p8sleeping,conc,act1
469,gabo4zuk24,176,0,"""uw_711""",1,"""p8""",4,efficiency,#7ec6ba,sleeping,0,0.0,9360.0,mix,across,features,0p8efficiency,conc,feat1
470,gabo4zuk24,176,0,"""uw_711""",1,"""p8""",4,driving,#184415,speed,0,0.0,9360.0,mix,across,activities,0p8driving,conc,act1
471,gabo4zuk24,176,0,"""uw_711""",1,"""p8""",4,speed,#e81a4b,driving,0,0.0,9360.0,mix,across,features,0p8speed,conc,feat1
472,gabo4zuk24,177,0,"""uw_711""",1,"""p1""",4,corn,#ffffff,corn,1,4.0,7838.0,conc,within,vegetables,0p1corn,conc,veg1
473,gabo4zuk24,177,0,"""uw_711""",1,"""p1""",4,carrot,#cc4f1b,carrot,1,4.0,7838.0,conc,within,vegetables,0p1carrot,conc,veg1
474,gabo4zuk24,177,0,"""uw_711""",1,"""p1""",4,banana,#d0b85a,banana,1,4.0,7838.0,conc,within,fruits,0p1banana,conc,fruit1
475,gabo4zuk24,177,0,"""uw_711""",1,"""p1""",4,grape,#512d5f,grape,1,4.0,7838.0,conc,within,fruits,0p1grape,conc,fruit1
476,gabo4zuk24,179,0,"""uw_711""",3,"""p3""",5,comfort,#a06776,comfort,1,2.0,8040.0,abs,within,features,0p3comfort,abs,feat2
477,gabo4zuk24,179,0,"""uw_711""",3,"""p3""",5,leisure,#e81a4b,safety,0,2.0,8040.0,abs,within,activities,0p3leisure,abs,act2
478,gabo4zuk24,179,0,"""uw_711""",3,"""p3""",5,safety,#55824d,leisure,0,2.0,8040.0,abs,within,features,0p3safety,abs,feat2
479,gabo4zuk24,179,0,"""uw_711""",3,"""p3""",5,working,#000000,working,1,2.0,8040.0,abs,within,activities,0p3working,abs,act2
480,gabo4zuk24,180,0,"""uw_711""",3,"""p2""",5,cherry,#ea1d1d,cherry,1,4.0,6411.0,mix,across,fruits,0p2cherry,abs,fruit2
481,gabo4zuk24,180,0,"""uw_711""",3,"""p2""",5,sleeping,#512d5f,sleeping,1,4.0,6411.0,mix,across,activities,0p2sleeping,conc,act1
482,gabo4zuk24,180,0,"""uw_711""",3,"""p2""",5,peach,#f1a78a,peach,1,4.0,6411.0,mix,across,fruits,0p2peach,abs,fruit2
483,gabo4zuk24,180,0,"""uw_711""",3,"""p2""",5,driving,#3efe44,driving,1,4.0,6411.0,mix,across,activities,0p2driving,conc,act1
484,gabo4zuk24,181,0,"""uw_711""",3,"""p8""",5,driving,#184415,driving,1,4.0,13763.0,mix,across,activities,0p8driving,conc,act1
485,gabo4zuk24,181,0,"""uw_711""",3,"""p8""",5,speed,#e81a4b,speed,1,4.0,13763.0,mix,across,features,0p8speed,conc,feat1
486,gabo4zuk24,181,0,"""uw_711""",3,"""p8""",5,sleeping,#512d5f,sleeping,1,4.0,13763.0,mix,across,activities,0p8sleeping,conc,act1
487,gabo4zuk24,181,0,"""uw_711""",3,"""p8""",5,efficiency,#7ec6ba,efficiency,1,4.0,13763.0,mix,across,features,0p8efficiency,conc,feat1
488,gabo4zuk24,182,0,"""uw_711""",3,"""p4""",5,celery,#608218,eggplant,0,1.0,10188.0,mix,across,vegetables,0p4celery,abs,veg2
489,gabo4zuk24,182,0,"""uw_711""",3,"""p4""",5,speed,#e81a4b,celery,0,1.0,10188.0,mix,across,features,0p4speed,conc,feat1
490,gabo4zuk24,182,0,"""uw_711""",3,"""p4""",5,eggplant,#600b84,speed,0,1.0,10188.0,mix,across,vegetables,0p4eggplant,abs,veg2
491,gabo4zuk24,182,0,"""uw_711""",3,"""p4""",5,efficiency,#5e78a1,efficiency,1,1.0,10188.0,mix,across,features,0p4efficiency,conc,feat1
492,gabo4zuk24,183,0,"""uw_711""",3,"""p1""",5,banana,#d0b85a,banana,1,4.0,6347.0,conc,within,fruits,0p1banana,conc,fruit1
493,gabo4zuk24,183,0,"""uw_711""",3,"""p1""",5,grape,#512d5f,grape,1,4.0,6347.0,conc,within,fruits,0p1grape,conc,fruit1
494,gabo4zuk24,183,0,"""uw_711""",3,"""p1""",5,corn,#ffffff,corn,1,4.0,6347.0,conc,within,vegetables,0p1corn,conc,veg1
495,gabo4zuk24,183,0,"""uw_711""",3,"""p1""",5,carrot,#cc4f1b,carrot,1,4.0,6347.0,conc,within,vegetables,0p1carrot,conc,veg1
496,gabo4zuk24,184,0,"""uw_711""",3,"""p7""",5,carrot,#cc4f1b,carrot,1,2.0,9549.0,abs,within,vegetables,0p7carrot,abs,veg1
497,gabo4zuk24,184,0,"""uw_711""",3,"""p7""",5,safety,#55824d,comfort,0,2.0,9549.0,abs,within,features,0p7safety,abs,feat2
498,gabo4zuk24,184,0,"""uw_711""",3,"""p7""",5,corn,#fcdb42,corn,1,2.0,9549.0,abs,within,vegetables,0p7corn,abs,veg1
499,gabo4zuk24,184,0,"""uw_711""",3,"""p7""",5,comfort,#a06776,safety,0,2.0,9549.0,abs,within,features,0p7comfort,abs,feat2
500,gabo4zuk24,185,0,"""uw_711""",3,"""p5""",5,banana,#fcdb42,banana,1,4.0,6085.0,mix,across,fruits,0p5banana,abs,fruit1
501,gabo4zuk24,185,0,"""uw_711""",3,"""p5""",5,working,#3b3b3b,working,1,4.0,6085.0,mix,across,activities,0p5working,conc,act2
502,gabo4zuk24,185,0,"""uw_711""",3,"""p5""",5,leisure,#a0bae6,leisure,1,4.0,6085.0,mix,across,activities,0p5leisure,conc,act2
503,gabo4zuk24,185,0,"""uw_711""",3,"""p5""",5,grape,#600b84,grape,1,4.0,6085.0,mix,across,fruits,0p5grape,abs,fruit1
508,gabo4zuk24,187,0,"""uw_711""",3,"""p6""",5,celery,#73cf10,eggplant,0,2.0,7355.0,conc,within,vegetables,0p6celery,conc,veg2
509,gabo4zuk24,187,0,"""uw_711""",3,"""p6""",5,peach,#f7a75a,peach,1,2.0,7355.0,conc,within,fruits,0p6peach,conc,fruit2
510,gabo4zuk24,187,0,"""uw_711""",3,"""p6""",5,eggplant,#600b84,celery,0,2.0,7355.0,conc,within,vegetables,0p6eggplant,conc,veg2
511,gabo4zuk24,187,0,"""uw_711""",3,"""p6""",5,cherry,#ea1d1d,cherry,1,2.0,7355.0,conc,within,fruits,0p6cherry,conc,fruit2
512,gabo4zuk24,189,0,"""uw_710""",1,"""p1""",6,carrot,#cc4f1b,carrot,1,4.0,6344.0,conc,within,vegetables,0p1carrot,conc,veg1
513,gabo4zuk24,189,0,"""uw_710""",1,"""p1""",6,corn,#ffffff,corn,1,4.0,6344.0,conc,within,vegetables,0p1corn,conc,veg1
514,gabo4zuk24,189,0,"""uw_710""",1,"""p1""",6,grape,#512d5f,grape,1,4.0,6344.0,conc,within,fruits,0p1grape,conc,fruit1
515,gabo4zuk24,189,0,"""uw_710""",1,"""p1""",6,banana,#d0b85a,banana,1,4.0,6344.0,conc,within,fruits,0p1banana,conc,fruit1
516,gabo4zuk24,190,0,"""uw_710""",1,"""p7""",6,comfort,#a06776,safety,0,2.0,7093.0,abs,within,features,0p7comfort,abs,feat2
517,gabo4zuk24,190,0,"""uw_710""",1,"""p7""",6,corn,#fcdb42,corn,1,2.0,7093.0,abs,within,vegetables,0p7corn,abs,veg1
518,gabo4zuk24,190,0,"""uw_710""",1,"""p7""",6,safety,#55824d,comfort,0,2.0,7093.0,abs,within,features,0p7safety,abs,feat2
519,gabo4zuk24,190,0,"""uw_710""",1,"""p7""",6,carrot,#cc4f1b,carrot,1,2.0,7093.0,abs,within,vegetables,0p7carrot,abs,veg1
520,gabo4zuk24,191,0,"""uw_710""",1,"""p3""",6,working,#000000,working,1,4.0,11169.0,abs,within,activities,0p3working,abs,act2
521,gabo4zuk24,191,0,"""uw_710""",1,"""p3""",6,safety,#55824d,safety,1,4.0,11169.0,abs,within,features,0p3safety,abs,feat2
522,gabo4zuk24,191,0,"""uw_710""",1,"""p3""",6,leisure,#e81a4b,leisure,1,4.0,11169.0,abs,within,activities,0p3leisure,abs,act2
523,gabo4zuk24,191,0,"""uw_710""",1,"""p3""",6,comfort,#a06776,comfort,1,4.0,11169.0,abs,within,features,0p3comfort,abs,feat2
528,gabo4zuk24,193,0,"""uw_710""",1,"""p2""",6,driving,#3efe44,sleeping,0,2.0,9824.0,mix,across,activities,0p2driving,conc,act1
529,gabo4zuk24,193,0,"""uw_710""",1,"""p2""",6,peach,#f1a78a,peach,1,2.0,9824.0,mix,across,fruits,0p2peach,abs,fruit2
530,gabo4zuk24,193,0,"""uw_710""",1,"""p2""",6,sleeping,#512d5f,driving,0,2.0,9824.0,mix,across,activities,0p2sleeping,conc,act1
531,gabo4zuk24,193,0,"""uw_710""",1,"""p2""",6,cherry,#ea1d1d,cherry,1,2.0,9824.0,mix,across,fruits,0p2cherry,abs,fruit2
532,gabo4zuk24,194,0,"""uw_710""",1,"""p8""",6,efficiency,#7ec6ba,efficiency,1,2.0,9971.0,mix,across,features,0p8efficiency,conc,feat1
533,gabo4zuk24,194,0,"""uw_710""",1,"""p8""",6,sleeping,#512d5f,sleeping,1,2.0,9971.0,mix,across,activities,0p8sleeping,conc,act1
534,gabo4zuk24,194,0,"""uw_710""",1,"""p8""",6,speed,#e81a4b,driving,0,2.0,9971.0,mix,across,features,0p8speed,conc,feat1
535,gabo4zuk24,194,0,"""uw_710""",1,"""p8""",6,driving,#184415,speed,0,2.0,9971.0,mix,across,activities,0p8driving,conc,act1
536,gabo4zuk24,195,0,"""uw_710""",1,"""p6""",6,cherry,#ea1d1d,cherry,1,2.0,6233.0,conc,within,fruits,0p6cherry,conc,fruit2
537,gabo4zuk24,195,0,"""uw_710""",1,"""p6""",6,eggplant,#600b84,celery,0,2.0,6233.0,conc,within,vegetables,0p6eggplant,conc,veg2
538,gabo4zuk24,195,0,"""uw_710""",1,"""p6""",6,peach,#f7a75a,peach,1,2.0,6233.0,conc,within,fruits,0p6peach,conc,fruit2
539,gabo4zuk24,195,0,"""uw_710""",1,"""p6""",6,celery,#73cf10,eggplant,0,2.0,6233.0,conc,within,vegetables,0p6celery,conc,veg2
540,gabo4zuk24,196,0,"""uw_710""",1,"""p5""",6,grape,#600b84,grape,1,2.0,7266.0,mix,across,fruits,0p5grape,abs,fruit1
541,gabo4zuk24,196,0,"""uw_710""",1,"""p5""",6,leisure,#a0bae6,working,0,2.0,7266.0,mix,across,activities,0p5leisure,conc,act2
542,gabo4zuk24,196,0,"""uw_710""",1,"""p5""",6,working,#3b3b3b,leisure,0,2.0,7266.0,mix,across,activities,0p5working,conc,act2
543,gabo4zuk24,196,0,"""uw_710""",1,"""p5""",6,banana,#fcdb42,banana,1,2.0,7266.0,mix,across,fruits,0p5banana,abs,fruit1
544,gabo4zuk24,197,0,"""uw_710""",1,"""p4""",6,efficiency,#5e78a1,efficiency,1,2.0,7790.0,mix,across,features,0p4efficiency,conc,feat1
545,gabo4zuk24,197,0,"""uw_710""",1,"""p4""",6,eggplant,#600b84,celery,0,2.0,7790.0,mix,across,vegetables,0p4eggplant,abs,veg2
546,gabo4zuk24,197,0,"""uw_710""",1,"""p4""",6,speed,#e81a4b,speed,1,2.0,7790.0,mix,across,features,0p4speed,conc,feat1
547,gabo4zuk24,197,0,"""uw_710""",1,"""p4""",6,celery,#608218,eggplant,0,2.0,7790.0,mix,across,vegetables,0p4celery,abs,veg2
548,gabo4zuk24,199,0,"""uw_711""",0,"""p1""",7,grape,#512d5f,grape,1,4.0,7112.0,conc,within,fruits,0p1grape,conc,fruit1
549,gabo4zuk24,199,0,"""uw_711""",0,"""p1""",7,corn,#ffffff,corn,1,4.0,7112.0,conc,within,vegetables,0p1corn,conc,veg1
550,gabo4zuk24,199,0,"""uw_711""",0,"""p1""",7,carrot,#cc4f1b,carrot,1,4.0,7112.0,conc,within,vegetables,0p1carrot,conc,veg1
551,gabo4zuk24,199,0,"""uw_711""",0,"""p1""",7,banana,#d0b85a,banana,1,4.0,7112.0,conc,within,fruits,0p1banana,conc,fruit1
556,gabo4zuk24,201,0,"""uw_711""",0,"""p8""",7,speed,#e81a4b,speed,1,4.0,7107.0,mix,across,features,0p8speed,conc,feat1
557,gabo4zuk24,201,0,"""uw_711""",0,"""p8""",7,sleeping,#512d5f,sleeping,1,4.0,7107.0,mix,across,activities,0p8sleeping,conc,act1
558,gabo4zuk24,201,0,"""uw_711""",0,"""p8""",7,efficiency,#7ec6ba,efficiency,1,4.0,7107.0,mix,across,features,0p8efficiency,conc,feat1
559,gabo4zuk24,201,0,"""uw_711""",0,"""p8""",7,driving,#184415,driving,1,4.0,7107.0,mix,across,activities,0p8driving,conc,act1
560,gabo4zuk24,202,0,"""uw_711""",0,"""p5""",7,working,#3b3b3b,working,1,4.0,6587.0,mix,across,activities,0p5working,conc,act2
561,gabo4zuk24,202,0,"""uw_711""",0,"""p5""",7,leisure,#a0bae6,leisure,1,4.0,6587.0,mix,across,activities,0p5leisure,conc,act2
562,gabo4zuk24,202,0,"""uw_711""",0,"""p5""",7,grape,#600b84,grape,1,4.0,6587.0,mix,across,fruits,0p5grape,abs,fruit1
563,gabo4zuk24,202,0,"""uw_711""",0,"""p5""",7,banana,#fcdb42,banana,1,4.0,6587.0,mix,across,fruits,0p5banana,abs,fruit1
564,gabo4zuk24,203,0,"""uw_711""",0,"""p3""",7,leisure,#e81a4b,leisure,1,2.0,8996.0,abs,within,activities,0p3leisure,abs,act2
565,gabo4zuk24,203,0,"""uw_711""",0,"""p3""",7,safety,#55824d,comfort,0,2.0,8996.0,abs,within,features,0p3safety,abs,feat2
566,gabo4zuk24,203,0,"""uw_711""",0,"""p3""",7,working,#000000,working,1,2.0,8996.0,abs,within,activities,0p3working,abs,act2
567,gabo4zuk24,203,0,"""uw_711""",0,"""p3""",7,comfort,#a06776,safety,0,2.0,8996.0,abs,within,features,0p3comfort,abs,feat2
568,gabo4zuk24,204,0,"""uw_711""",0,"""p7""",7,safety,#55824d,comfort,0,2.0,13256.0,abs,within,features,0p7safety,abs,feat2
569,gabo4zuk24,204,0,"""uw_711""",0,"""p7""",7,corn,#fcdb42,corn,1,2.0,13256.0,abs,within,vegetables,0p7corn,abs,veg1
570,gabo4zuk24,204,0,"""uw_711""",0,"""p7""",7,comfort,#a06776,safety,0,2.0,13256.0,abs,within,features,0p7comfort,abs,feat2
571,gabo4zuk24,204,0,"""uw_711""",0,"""p7""",7,carrot,#cc4f1b,carrot,1,2.0,13256.0,abs,within,vegetables,0p7carrot,abs,veg1
572,gabo4zuk24,205,0,"""uw_711""",0,"""p4""",7,speed,#e81a4b,speed,1,1.0,9260.0,mix,across,features,0p4speed,conc,feat1
573,gabo4zuk24,205,0,"""uw_711""",0,"""p4""",7,eggplant,#600b84,efficiency,0,1.0,9260.0,mix,across,vegetables,0p4eggplant,abs,veg2
574,gabo4zuk24,205,0,"""uw_711""",0,"""p4""",7,efficiency,#5e78a1,celery,0,1.0,9260.0,mix,across,features,0p4efficiency,conc,feat1
575,gabo4zuk24,205,0,"""uw_711""",0,"""p4""",7,celery,#608218,eggplant,0,1.0,9260.0,mix,across,vegetables,0p4celery,abs,veg2
576,gabo4zuk24,206,0,"""uw_711""",0,"""p2""",7,sleeping,#512d5f,driving,0,2.0,7907.0,mix,across,activities,0p2sleeping,conc,act1
577,gabo4zuk24,206,0,"""uw_711""",0,"""p2""",7,peach,#f1a78a,peach,1,2.0,7907.0,mix,across,fruits,0p2peach,abs,fruit2
578,gabo4zuk24,206,0,"""uw_711""",0,"""p2""",7,driving,#3efe44,sleeping,0,2.0,7907.0,mix,across,activities,0p2driving,conc,act1
579,gabo4zuk24,206,0,"""uw_711""",0,"""p2""",7,cherry,#ea1d1d,cherry,1,2.0,7907.0,mix,across,fruits,0p2cherry,abs,fruit2
580,gabo4zuk24,207,0,"""uw_711""",0,"""p6""",7,peach,#f7a75a,peach,1,2.0,6013.0,conc,within,fruits,0p6peach,conc,fruit2
581,gabo4zuk24,207,0,"""uw_711""",0,"""p6""",7,eggplant,#600b84,celery,0,2.0,6013.0,conc,within,vegetables,0p6eggplant,conc,veg2
582,gabo4zuk24,207,0,"""uw_711""",0,"""p6""",7,cherry,#ea1d1d,cherry,1,2.0,6013.0,conc,within,fruits,0p6cherry,conc,fruit2
583,gabo4zuk24,207,0,"""uw_711""",0,"""p6""",7,celery,#73cf10,eggplant,0,2.0,6013.0,conc,within,vegetables,0p6celery,conc,veg2
588,7uf644x3n7,216,0,"""uw_710""",3,"""p5""",0,working,#3b3b3b,working,1,4.0,11100.0,mix,across,activities,0p5working,conc,act2
589,7uf644x3n7,216,0,"""uw_710""",3,"""p5""",0,banana,#fcdb42,banana,1,4.0,11100.0,mix,across,fruits,0p5banana,abs,fruit1
590,7uf644x3n7,216,0,"""uw_710""",3,"""p5""",0,grape,#600b84,grape,1,4.0,11100.0,mix,across,fruits,0p5grape,abs,fruit1
591,7uf644x3n7,216,0,"""uw_710""",3,"""p5""",0,leisure,#a0bae6,leisure,1,4.0,11100.0,mix,across,activities,0p5leisure,conc,act2
592,7uf644x3n7,217,0,"""uw_710""",3,"""p6""",0,peach,#f7a75a,peach,1,4.0,8796.0,conc,within,fruits,0p6peach,conc,fruit2
593,7uf644x3n7,217,0,"""uw_710""",3,"""p6""",0,celery,#73cf10,celery,1,4.0,8796.0,conc,within,vegetables,0p6celery,conc,veg2
594,7uf644x3n7,217,0,"""uw_710""",3,"""p6""",0,cherry,#ea1d1d,cherry,1,4.0,8796.0,conc,within,fruits,0p6cherry,conc,fruit2
595,7uf644x3n7,217,0,"""uw_710""",3,"""p6""",0,eggplant,#600b84,eggplant,1,4.0,8796.0,conc,within,vegetables,0p6eggplant,conc,veg2
596,7uf644x3n7,218,0,"""uw_710""",3,"""p3""",0,leisure,#e81a4b,leisure,1,4.0,18832.0,abs,within,activities,0p3leisure,abs,act2
597,7uf644x3n7,218,0,"""uw_710""",3,"""p3""",0,comfort,#a06776,comfort,1,4.0,18832.0,abs,within,features,0p3comfort,abs,feat2
598,7uf644x3n7,218,0,"""uw_710""",3,"""p3""",0,working,#000000,working,1,4.0,18832.0,abs,within,activities,0p3working,abs,act2
599,7uf644x3n7,218,0,"""uw_710""",3,"""p3""",0,safety,#55824d,safety,1,4.0,18832.0,abs,within,features,0p3safety,abs,feat2
604,7uf644x3n7,220,0,"""uw_710""",3,"""p8""",0,speed,#e81a4b,speed,1,4.0,15997.0,mix,across,features,0p8speed,conc,feat1
605,7uf644x3n7,220,0,"""uw_710""",3,"""p8""",0,driving,#184415,driving,1,4.0,15997.0,mix,across,activities,0p8driving,conc,act1
606,7uf644x3n7,220,0,"""uw_710""",3,"""p8""",0,efficiency,#7ec6ba,efficiency,1,4.0,15997.0,mix,across,features,0p8efficiency,conc,feat1
607,7uf644x3n7,220,0,"""uw_710""",3,"""p8""",0,sleeping,#512d5f,sleeping,1,4.0,15997.0,mix,across,activities,0p8sleeping,conc,act1
608,7uf644x3n7,221,0,"""uw_710""",3,"""p2""",0,sleeping,#512d5f,sleeping,1,4.0,9167.0,mix,across,activities,0p2sleeping,conc,act1
609,7uf644x3n7,221,0,"""uw_710""",3,"""p2""",0,cherry,#ea1d1d,cherry,1,4.0,9167.0,mix,across,fruits,0p2cherry,abs,fruit2
610,7uf644x3n7,221,0,"""uw_710""",3,"""p2""",0,driving,#3efe44,driving,1,4.0,9167.0,mix,across,activities,0p2driving,conc,act1
611,7uf644x3n7,221,0,"""uw_710""",3,"""p2""",0,peach,#f1a78a,peach,1,4.0,9167.0,mix,across,fruits,0p2peach,abs,fruit2
612,7uf644x3n7,222,0,"""uw_710""",3,"""p1""",0,grape,#512d5f,grape,1,4.0,12754.0,conc,within,fruits,0p1grape,conc,fruit1
613,7uf644x3n7,222,0,"""uw_710""",3,"""p1""",0,banana,#d0b85a,banana,1,4.0,12754.0,conc,within,fruits,0p1banana,conc,fruit1
614,7uf644x3n7,222,0,"""uw_710""",3,"""p1""",0,carrot,#cc4f1b,carrot,1,4.0,12754.0,conc,within,vegetables,0p1carrot,conc,veg1
615,7uf644x3n7,222,0,"""uw_710""",3,"""p1""",0,corn,#ffffff,corn,1,4.0,12754.0,conc,within,vegetables,0p1corn,conc,veg1
616,7uf644x3n7,223,0,"""uw_710""",3,"""p4""",0,speed,#e81a4b,speed,1,4.0,7200.0,mix,across,features,0p4speed,conc,feat1
617,7uf644x3n7,223,0,"""uw_710""",3,"""p4""",0,celery,#608218,celery,1,4.0,7200.0,mix,across,vegetables,0p4celery,abs,veg2
618,7uf644x3n7,223,0,"""uw_710""",3,"""p4""",0,efficiency,#5e78a1,efficiency,1,4.0,7200.0,mix,across,features,0p4efficiency,conc,feat1
619,7uf644x3n7,223,0,"""uw_710""",3,"""p4""",0,eggplant,#600b84,eggplant,1,4.0,7200.0,mix,across,vegetables,0p4eggplant,abs,veg2
620,7uf644x3n7,224,0,"""uw_710""",3,"""p7""",0,safety,#55824d,safety,1,4.0,7569.0,abs,within,features,0p7safety,abs,feat2
621,7uf644x3n7,224,0,"""uw_710""",3,"""p7""",0,carrot,#cc4f1b,carrot,1,4.0,7569.0,abs,within,vegetables,0p7carrot,abs,veg1
622,7uf644x3n7,224,0,"""uw_710""",3,"""p7""",0,comfort,#a06776,comfort,1,4.0,7569.0,abs,within,features,0p7comfort,abs,feat2
623,7uf644x3n7,224,0,"""uw_710""",3,"""p7""",0,corn,#fcdb42,corn,1,4.0,7569.0,abs,within,vegetables,0p7corn,abs,veg1
624,7uf644x3n7,226,0,"""uw_711""",2,"""p4""",1,efficiency,#5e78a1,efficiency,1,4.0,6657.0,mix,across,features,0p4efficiency,conc,feat1
625,7uf644x3n7,226,0,"""uw_711""",2,"""p4""",1,celery,#608218,celery,1,4.0,6657.0,mix,across,vegetables,0p4celery,abs,veg2
626,7uf644x3n7,226,0,"""uw_711""",2,"""p4""",1,speed,#e81a4b,speed,1,4.0,6657.0,mix,across,features,0p4speed,conc,feat1
627,7uf644x3n7,226,0,"""uw_711""",2,"""p4""",1,eggplant,#600b84,eggplant,1,4.0,6657.0,mix,across,vegetables,0p4eggplant,abs,veg2
628,7uf644x3n7,227,0,"""uw_711""",2,"""p1""",1,carrot,#cc4f1b,carrot,1,4.0,9529.0,conc,within,vegetables,0p1carrot,conc,veg1
629,7uf644x3n7,227,0,"""uw_711""",2,"""p1""",1,banana,#d0b85a,banana,1,4.0,9529.0,conc,within,fruits,0p1banana,conc,fruit1
630,7uf644x3n7,227,0,"""uw_711""",2,"""p1""",1,grape,#512d5f,grape,1,4.0,9529.0,conc,within,fruits,0p1grape,conc,fruit1
631,7uf644x3n7,227,0,"""uw_711""",2,"""p1""",1,corn,#ffffff,corn,1,4.0,9529.0,conc,within,vegetables,0p1corn,conc,veg1
636,7uf644x3n7,229,0,"""uw_711""",2,"""p5""",1,grape,#600b84,grape,1,4.0,9077.0,mix,across,fruits,0p5grape,abs,fruit1
637,7uf644x3n7,229,0,"""uw_711""",2,"""p5""",1,banana,#fcdb42,banana,1,4.0,9077.0,mix,across,fruits,0p5banana,abs,fruit1
638,7uf644x3n7,229,0,"""uw_711""",2,"""p5""",1,working,#3b3b3b,working,1,4.0,9077.0,mix,across,activities,0p5working,conc,act2
639,7uf644x3n7,229,0,"""uw_711""",2,"""p5""",1,leisure,#a0bae6,leisure,1,4.0,9077.0,mix,across,activities,0p5leisure,conc,act2
640,7uf644x3n7,230,0,"""uw_711""",2,"""p2""",1,driving,#3efe44,driving,1,4.0,9224.0,mix,across,activities,0p2driving,conc,act1
641,7uf644x3n7,230,0,"""uw_711""",2,"""p2""",1,cherry,#ea1d1d,cherry,1,4.0,9224.0,mix,across,fruits,0p2cherry,abs,fruit2
642,7uf644x3n7,230,0,"""uw_711""",2,"""p2""",1,sleeping,#512d5f,sleeping,1,4.0,9224.0,mix,across,activities,0p2sleeping,conc,act1
643,7uf644x3n7,230,0,"""uw_711""",2,"""p2""",1,peach,#f1a78a,peach,1,4.0,9224.0,mix,across,fruits,0p2peach,abs,fruit2
644,7uf644x3n7,231,0,"""uw_711""",2,"""p6""",1,cherry,#ea1d1d,cherry,1,4.0,6883.0,conc,within,fruits,0p6cherry,conc,fruit2
645,7uf644x3n7,231,0,"""uw_711""",2,"""p6""",1,celery,#73cf10,celery,1,4.0,6883.0,conc,within,vegetables,0p6celery,conc,veg2
646,7uf644x3n7,231,0,"""uw_711""",2,"""p6""",1,peach,#f7a75a,peach,1,4.0,6883.0,conc,within,fruits,0p6peach,conc,fruit2
647,7uf644x3n7,231,0,"""uw_711""",2,"""p6""",1,eggplant,#600b84,eggplant,1,4.0,6883.0,conc,within,vegetables,0p6eggplant,conc,veg2
648,7uf644x3n7,232,0,"""uw_711""",2,"""p3""",1,working,#000000,working,1,4.0,13780.0,abs,within,activities,0p3working,abs,act2
649,7uf644x3n7,232,0,"""uw_711""",2,"""p3""",1,comfort,#a06776,comfort,1,4.0,13780.0,abs,within,features,0p3comfort,abs,feat2
650,7uf644x3n7,232,0,"""uw_711""",2,"""p3""",1,leisure,#e81a4b,leisure,1,4.0,13780.0,abs,within,activities,0p3leisure,abs,act2
651,7uf644x3n7,232,0,"""uw_711""",2,"""p3""",1,safety,#55824d,safety,1,4.0,13780.0,abs,within,features,0p3safety,abs,feat2
652,7uf644x3n7,233,0,"""uw_711""",2,"""p7""",1,comfort,#a06776,comfort,1,4.0,9021.0,abs,within,features,0p7comfort,abs,feat2
653,7uf644x3n7,233,0,"""uw_711""",2,"""p7""",1,carrot,#cc4f1b,carrot,1,4.0,9021.0,abs,within,vegetables,0p7carrot,abs,veg1
654,7uf644x3n7,233,0,"""uw_711""",2,"""p7""",1,safety,#55824d,safety,1,4.0,9021.0,abs,within,features,0p7safety,abs,feat2
655,7uf644x3n7,233,0,"""uw_711""",2,"""p7""",1,corn,#fcdb42,corn,1,4.0,9021.0,abs,within,vegetables,0p7corn,abs,veg1
656,7uf644x3n7,234,0,"""uw_711""",2,"""p8""",1,efficiency,#7ec6ba,efficiency,1,4.0,9077.0,mix,across,features,0p8efficiency,conc,feat1
657,7uf644x3n7,234,0,"""uw_711""",2,"""p8""",1,driving,#184415,driving,1,4.0,9077.0,mix,across,activities,0p8driving,conc,act1
658,7uf644x3n7,234,0,"""uw_711""",2,"""p8""",1,speed,#e81a4b,speed,1,4.0,9077.0,mix,across,features,0p8speed,conc,feat1
659,7uf644x3n7,234,0,"""uw_711""",2,"""p8""",1,sleeping,#512d5f,sleeping,1,4.0,9077.0,mix,across,activities,0p8sleeping,conc,act1
660,7uf644x3n7,236,0,"""uw_711""",3,"""p8""",2,driving,#184415,driving,1,4.0,16111.0,mix,across,activities,0p8driving,conc,act1
661,7uf644x3n7,236,0,"""uw_711""",3,"""p8""",2,speed,#e81a4b,speed,1,4.0,16111.0,mix,across,features,0p8speed,conc,feat1
662,7uf644x3n7,236,0,"""uw_711""",3,"""p8""",2,sleeping,#512d5f,sleeping,1,4.0,16111.0,mix,across,activities,0p8sleeping,conc,act1
663,7uf644x3n7,236,0,"""uw_711""",3,"""p8""",2,efficiency,#7ec6ba,efficiency,1,4.0,16111.0,mix,across,features,0p8efficiency,conc,feat1
668,7uf644x3n7,238,0,"""uw_711""",3,"""p5""",2,banana,#fcdb42,banana,1,4.0,6917.0,mix,across,fruits,0p5banana,abs,fruit1
669,7uf644x3n7,238,0,"""uw_711""",3,"""p5""",2,working,#3b3b3b,working,1,4.0,6917.0,mix,across,activities,0p5working,conc,act2
670,7uf644x3n7,238,0,"""uw_711""",3,"""p5""",2,leisure,#a0bae6,leisure,1,4.0,6917.0,mix,across,activities,0p5leisure,conc,act2
671,7uf644x3n7,238,0,"""uw_711""",3,"""p5""",2,grape,#600b84,grape,1,4.0,6917.0,mix,across,fruits,0p5grape,abs,fruit1
672,7uf644x3n7,239,0,"""uw_711""",3,"""p2""",2,cherry,#ea1d1d,cherry,1,4.0,10934.0,mix,across,fruits,0p2cherry,abs,fruit2
673,7uf644x3n7,239,0,"""uw_711""",3,"""p2""",2,sleeping,#512d5f,sleeping,1,4.0,10934.0,mix,across,activities,0p2sleeping,conc,act1
674,7uf644x3n7,239,0,"""uw_711""",3,"""p2""",2,peach,#f1a78a,peach,1,4.0,10934.0,mix,across,fruits,0p2peach,abs,fruit2
675,7uf644x3n7,239,0,"""uw_711""",3,"""p2""",2,driving,#3efe44,driving,1,4.0,10934.0,mix,across,activities,0p2driving,conc,act1
676,7uf644x3n7,240,0,"""uw_711""",3,"""p3""",2,comfort,#a06776,comfort,1,4.0,7615.0,abs,within,features,0p3comfort,abs,feat2
677,7uf644x3n7,240,0,"""uw_711""",3,"""p3""",2,leisure,#e81a4b,leisure,1,4.0,7615.0,abs,within,activities,0p3leisure,abs,act2
678,7uf644x3n7,240,0,"""uw_711""",3,"""p3""",2,safety,#55824d,safety,1,4.0,7615.0,abs,within,features,0p3safety,abs,feat2
679,7uf644x3n7,240,0,"""uw_711""",3,"""p3""",2,working,#000000,working,1,4.0,7615.0,abs,within,activities,0p3working,abs,act2
680,7uf644x3n7,241,0,"""uw_711""",3,"""p7""",2,carrot,#cc4f1b,carrot,1,4.0,11181.0,abs,within,vegetables,0p7carrot,abs,veg1
681,7uf644x3n7,241,0,"""uw_711""",3,"""p7""",2,safety,#55824d,safety,1,4.0,11181.0,abs,within,features,0p7safety,abs,feat2
682,7uf644x3n7,241,0,"""uw_711""",3,"""p7""",2,corn,#fcdb42,corn,1,4.0,11181.0,abs,within,vegetables,0p7corn,abs,veg1
683,7uf644x3n7,241,0,"""uw_711""",3,"""p7""",2,comfort,#a06776,comfort,1,4.0,11181.0,abs,within,features,0p7comfort,abs,feat2
684,7uf644x3n7,242,0,"""uw_711""",3,"""p4""",2,celery,#608218,celery,1,4.0,10224.0,mix,across,vegetables,0p4celery,abs,veg2
685,7uf644x3n7,242,0,"""uw_711""",3,"""p4""",2,speed,#e81a4b,speed,1,4.0,10224.0,mix,across,features,0p4speed,conc,feat1
686,7uf644x3n7,242,0,"""uw_711""",3,"""p4""",2,eggplant,#600b84,eggplant,1,4.0,10224.0,mix,across,vegetables,0p4eggplant,abs,veg2
687,7uf644x3n7,242,0,"""uw_711""",3,"""p4""",2,efficiency,#5e78a1,efficiency,1,4.0,10224.0,mix,across,features,0p4efficiency,conc,feat1
688,7uf644x3n7,243,0,"""uw_711""",3,"""p6""",2,celery,#73cf10,celery,1,4.0,6849.0,conc,within,vegetables,0p6celery,conc,veg2
689,7uf644x3n7,243,0,"""uw_711""",3,"""p6""",2,peach,#f7a75a,peach,1,4.0,6849.0,conc,within,fruits,0p6peach,conc,fruit2
690,7uf644x3n7,243,0,"""uw_711""",3,"""p6""",2,eggplant,#600b84,eggplant,1,4.0,6849.0,conc,within,vegetables,0p6eggplant,conc,veg2
691,7uf644x3n7,243,0,"""uw_711""",3,"""p6""",2,cherry,#ea1d1d,cherry,1,4.0,6849.0,conc,within,fruits,0p6cherry,conc,fruit2
692,7uf644x3n7,244,0,"""uw_711""",3,"""p1""",2,banana,#d0b85a,banana,1,4.0,7256.0,conc,within,fruits,0p1banana,conc,fruit1
693,7uf644x3n7,244,0,"""uw_711""",3,"""p1""",2,grape,#512d5f,grape,1,4.0,7256.0,conc,within,fruits,0p1grape,conc,fruit1
694,7uf644x3n7,244,0,"""uw_711""",3,"""p1""",2,corn,#ffffff,corn,1,4.0,7256.0,conc,within,vegetables,0p1corn,conc,veg1
695,7uf644x3n7,244,0,"""uw_711""",3,"""p1""",2,carrot,#cc4f1b,carrot,1,4.0,7256.0,conc,within,vegetables,0p1carrot,conc,veg1
696,7uf644x3n7,246,0,"""uw_710""",1,"""p2""",3,driving,#3efe44,driving,1,4.0,22058.0,mix,across,activities,0p2driving,conc,act1
697,7uf644x3n7,246,0,"""uw_710""",1,"""p2""",3,peach,#f1a78a,peach,1,4.0,22058.0,mix,across,fruits,0p2peach,abs,fruit2
698,7uf644x3n7,246,0,"""uw_710""",1,"""p2""",3,sleeping,#512d5f,sleeping,1,4.0,22058.0,mix,across,activities,0p2sleeping,conc,act1
699,7uf644x3n7,246,0,"""uw_710""",1,"""p2""",3,cherry,#ea1d1d,cherry,1,4.0,22058.0,mix,across,fruits,0p2cherry,abs,fruit2
700,7uf644x3n7,247,0,"""uw_710""",1,"""p8""",3,efficiency,#7ec6ba,efficiency,1,4.0,6784.0,mix,across,features,0p8efficiency,conc,feat1
701,7uf644x3n7,247,0,"""uw_710""",1,"""p8""",3,sleeping,#512d5f,sleeping,1,4.0,6784.0,mix,across,activities,0p8sleeping,conc,act1
702,7uf644x3n7,247,0,"""uw_710""",1,"""p8""",3,speed,#e81a4b,speed,1,4.0,6784.0,mix,across,features,0p8speed,conc,feat1
703,7uf644x3n7,247,0,"""uw_710""",1,"""p8""",3,driving,#184415,driving,1,4.0,6784.0,mix,across,activities,0p8driving,conc,act1
704,7uf644x3n7,248,0,"""uw_710""",1,"""p5""",3,grape,#600b84,grape,1,4.0,9459.0,mix,across,fruits,0p5grape,abs,fruit1
705,7uf644x3n7,248,0,"""uw_710""",1,"""p5""",3,leisure,#a0bae6,leisure,1,4.0,9459.0,mix,across,activities,0p5leisure,conc,act2
706,7uf644x3n7,248,0,"""uw_710""",1,"""p5""",3,working,#3b3b3b,working,1,4.0,9459.0,mix,across,activities,0p5working,conc,act2
707,7uf644x3n7,248,0,"""uw_710""",1,"""p5""",3,banana,#fcdb42,banana,1,4.0,9459.0,mix,across,fruits,0p5banana,abs,fruit1
708,7uf644x3n7,249,0,"""uw_710""",1,"""p7""",3,comfort,#a06776,comfort,1,4.0,8325.0,abs,within,features,0p7comfort,abs,feat2
709,7uf644x3n7,249,0,"""uw_710""",1,"""p7""",3,corn,#fcdb42,corn,1,4.0,8325.0,abs,within,vegetables,0p7corn,abs,veg1
710,7uf644x3n7,249,0,"""uw_710""",1,"""p7""",3,safety,#55824d,safety,1,4.0,8325.0,abs,within,features,0p7safety,abs,feat2
711,7uf644x3n7,249,0,"""uw_710""",1,"""p7""",3,carrot,#cc4f1b,carrot,1,4.0,8325.0,abs,within,vegetables,0p7carrot,abs,veg1
712,7uf644x3n7,250,0,"""uw_710""",1,"""p3""",3,working,#000000,working,1,4.0,8143.0,abs,within,activities,0p3working,abs,act2
713,7uf644x3n7,250,0,"""uw_710""",1,"""p3""",3,safety,#55824d,safety,1,4.0,8143.0,abs,within,features,0p3safety,abs,feat2
714,7uf644x3n7,250,0,"""uw_710""",1,"""p3""",3,leisure,#e81a4b,leisure,1,4.0,8143.0,abs,within,activities,0p3leisure,abs,act2
715,7uf644x3n7,250,0,"""uw_710""",1,"""p3""",3,comfort,#a06776,comfort,1,4.0,8143.0,abs,within,features,0p3comfort,abs,feat2
716,7uf644x3n7,251,0,"""uw_710""",1,"""p6""",3,cherry,#ea1d1d,cherry,1,4.0,6568.0,conc,within,fruits,0p6cherry,conc,fruit2
717,7uf644x3n7,251,0,"""uw_710""",1,"""p6""",3,eggplant,#600b84,eggplant,1,4.0,6568.0,conc,within,vegetables,0p6eggplant,conc,veg2
718,7uf644x3n7,251,0,"""uw_710""",1,"""p6""",3,peach,#f7a75a,peach,1,4.0,6568.0,conc,within,fruits,0p6peach,conc,fruit2
719,7uf644x3n7,251,0,"""uw_710""",1,"""p6""",3,celery,#73cf10,celery,1,4.0,6568.0,conc,within,vegetables,0p6celery,conc,veg2
720,7uf644x3n7,252,0,"""uw_710""",1,"""p1""",3,carrot,#cc4f1b,carrot,1,4.0,8987.0,conc,within,vegetables,0p1carrot,conc,veg1
721,7uf644x3n7,252,0,"""uw_710""",1,"""p1""",3,corn,#ffffff,corn,1,4.0,8987.0,conc,within,vegetables,0p1corn,conc,veg1
722,7uf644x3n7,252,0,"""uw_710""",1,"""p1""",3,grape,#512d5f,grape,1,4.0,8987.0,conc,within,fruits,0p1grape,conc,fruit1
723,7uf644x3n7,252,0,"""uw_710""",1,"""p1""",3,banana,#d0b85a,banana,1,4.0,8987.0,conc,within,fruits,0p1banana,conc,fruit1
724,7uf644x3n7,253,0,"""uw_710""",1,"""p4""",3,efficiency,#5e78a1,efficiency,1,4.0,10867.0,mix,across,features,0p4efficiency,conc,feat1
725,7uf644x3n7,253,0,"""uw_710""",1,"""p4""",3,eggplant,#600b84,eggplant,1,4.0,10867.0,mix,across,vegetables,0p4eggplant,abs,veg2
726,7uf644x3n7,253,0,"""uw_710""",1,"""p4""",3,speed,#e81a4b,speed,1,4.0,10867.0,mix,across,features,0p4speed,conc,feat1
727,7uf644x3n7,253,0,"""uw_710""",1,"""p4""",3,celery,#608218,celery,1,4.0,10867.0,mix,across,vegetables,0p4celery,abs,veg2
732,7uf644x3n7,256,0,"""uw_710""",0,"""p6""",4,celery,#73cf10,celery,1,4.0,8289.0,conc,within,vegetables,0p6celery,conc,veg2
733,7uf644x3n7,256,0,"""uw_710""",0,"""p6""",4,cherry,#ea1d1d,cherry,1,4.0,8289.0,conc,within,fruits,0p6cherry,conc,fruit2
734,7uf644x3n7,256,0,"""uw_710""",0,"""p6""",4,eggplant,#600b84,eggplant,1,4.0,8289.0,conc,within,vegetables,0p6eggplant,conc,veg2
735,7uf644x3n7,256,0,"""uw_710""",0,"""p6""",4,peach,#f7a75a,peach,1,4.0,8289.0,conc,within,fruits,0p6peach,conc,fruit2
736,7uf644x3n7,257,0,"""uw_710""",0,"""p7""",4,carrot,#cc4f1b,carrot,1,4.0,8707.0,abs,within,vegetables,0p7carrot,abs,veg1
737,7uf644x3n7,257,0,"""uw_710""",0,"""p7""",4,comfort,#a06776,comfort,1,4.0,8707.0,abs,within,features,0p7comfort,abs,feat2
738,7uf644x3n7,257,0,"""uw_710""",0,"""p7""",4,corn,#fcdb42,corn,1,4.0,8707.0,abs,within,vegetables,0p7corn,abs,veg1
739,7uf644x3n7,257,0,"""uw_710""",0,"""p7""",4,safety,#55824d,safety,1,4.0,8707.0,abs,within,features,0p7safety,abs,feat2
744,7uf644x3n7,259,0,"""uw_710""",0,"""p2""",4,cherry,#ea1d1d,cherry,1,4.0,11406.0,mix,across,fruits,0p2cherry,abs,fruit2
745,7uf644x3n7,259,0,"""uw_710""",0,"""p2""",4,driving,#3efe44,driving,1,4.0,11406.0,mix,across,activities,0p2driving,conc,act1
746,7uf644x3n7,259,0,"""uw_710""",0,"""p2""",4,peach,#f1a78a,peach,1,4.0,11406.0,mix,across,fruits,0p2peach,abs,fruit2
747,7uf644x3n7,259,0,"""uw_710""",0,"""p2""",4,sleeping,#512d5f,sleeping,1,4.0,11406.0,mix,across,activities,0p2sleeping,conc,act1
748,7uf644x3n7,260,0,"""uw_710""",0,"""p4""",4,celery,#608218,celery,1,4.0,6365.0,mix,across,vegetables,0p4celery,abs,veg2
749,7uf644x3n7,260,0,"""uw_710""",0,"""p4""",4,efficiency,#5e78a1,efficiency,1,4.0,6365.0,mix,across,features,0p4efficiency,conc,feat1
750,7uf644x3n7,260,0,"""uw_710""",0,"""p4""",4,eggplant,#600b84,eggplant,1,4.0,6365.0,mix,across,vegetables,0p4eggplant,abs,veg2
751,7uf644x3n7,260,0,"""uw_710""",0,"""p4""",4,speed,#e81a4b,speed,1,4.0,6365.0,mix,across,features,0p4speed,conc,feat1
752,7uf644x3n7,261,0,"""uw_710""",0,"""p3""",4,comfort,#a06776,comfort,1,4.0,6264.0,abs,within,features,0p3comfort,abs,feat2
753,7uf644x3n7,261,0,"""uw_710""",0,"""p3""",4,working,#000000,working,1,4.0,6264.0,abs,within,activities,0p3working,abs,act2
754,7uf644x3n7,261,0,"""uw_710""",0,"""p3""",4,safety,#55824d,safety,1,4.0,6264.0,abs,within,features,0p3safety,abs,feat2
755,7uf644x3n7,261,0,"""uw_710""",0,"""p3""",4,leisure,#e81a4b,leisure,1,4.0,6264.0,abs,within,activities,0p3leisure,abs,act2
756,7uf644x3n7,262,0,"""uw_710""",0,"""p8""",4,driving,#184415,driving,1,4.0,7491.0,mix,across,activities,0p8driving,conc,act1
757,7uf644x3n7,262,0,"""uw_710""",0,"""p8""",4,efficiency,#7ec6ba,efficiency,1,4.0,7491.0,mix,across,features,0p8efficiency,conc,feat1
758,7uf644x3n7,262,0,"""uw_710""",0,"""p8""",4,sleeping,#512d5f,sleeping,1,4.0,7491.0,mix,across,activities,0p8sleeping,conc,act1
759,7uf644x3n7,262,0,"""uw_710""",0,"""p8""",4,speed,#e81a4b,speed,1,4.0,7491.0,mix,across,features,0p8speed,conc,feat1
760,7uf644x3n7,263,0,"""uw_710""",0,"""p1""",4,banana,#d0b85a,banana,1,4.0,9616.0,conc,within,fruits,0p1banana,conc,fruit1
761,7uf644x3n7,263,0,"""uw_710""",0,"""p1""",4,carrot,#cc4f1b,carrot,1,4.0,9616.0,conc,within,vegetables,0p1carrot,conc,veg1
762,7uf644x3n7,263,0,"""uw_710""",0,"""p1""",4,corn,#ffffff,corn,1,4.0,9616.0,conc,within,vegetables,0p1corn,conc,veg1
763,7uf644x3n7,263,0,"""uw_710""",0,"""p1""",4,grape,#512d5f,grape,1,4.0,9616.0,conc,within,fruits,0p1grape,conc,fruit1
764,7uf644x3n7,264,0,"""uw_710""",0,"""p5""",4,banana,#fcdb42,banana,1,4.0,7547.0,mix,across,fruits,0p5banana,abs,fruit1
765,7uf644x3n7,264,0,"""uw_710""",0,"""p5""",4,grape,#600b84,grape,1,4.0,7547.0,mix,across,fruits,0p5grape,abs,fruit1
766,7uf644x3n7,264,0,"""uw_710""",0,"""p5""",4,leisure,#a0bae6,leisure,1,4.0,7547.0,mix,across,activities,0p5leisure,conc,act2
767,7uf644x3n7,264,0,"""uw_710""",0,"""p5""",4,working,#3b3b3b,working,1,4.0,7547.0,mix,across,activities,0p5working,conc,act2
768,7uf644x3n7,266,0,"""uw_711""",1,"""p1""",5,corn,#ffffff,corn,1,4.0,7423.0,conc,within,vegetables,0p1corn,conc,veg1
769,7uf644x3n7,266,0,"""uw_711""",1,"""p1""",5,carrot,#cc4f1b,carrot,1,4.0,7423.0,conc,within,vegetables,0p1carrot,conc,veg1
770,7uf644x3n7,266,0,"""uw_711""",1,"""p1""",5,banana,#d0b85a,banana,1,4.0,7423.0,conc,within,fruits,0p1banana,conc,fruit1
771,7uf644x3n7,266,0,"""uw_711""",1,"""p1""",5,grape,#512d5f,grape,1,4.0,7423.0,conc,within,fruits,0p1grape,conc,fruit1
772,7uf644x3n7,267,0,"""uw_711""",1,"""p2""",5,peach,#f1a78a,peach,1,4.0,9010.0,mix,across,fruits,0p2peach,abs,fruit2
773,7uf644x3n7,267,0,"""uw_711""",1,"""p2""",5,driving,#3efe44,driving,1,4.0,9010.0,mix,across,activities,0p2driving,conc,act1
774,7uf644x3n7,267,0,"""uw_711""",1,"""p2""",5,cherry,#ea1d1d,cherry,1,4.0,9010.0,mix,across,fruits,0p2cherry,abs,fruit2
775,7uf644x3n7,267,0,"""uw_711""",1,"""p2""",5,sleeping,#512d5f,sleeping,1,4.0,9010.0,mix,across,activities,0p2sleeping,conc,act1
776,7uf644x3n7,268,0,"""uw_711""",1,"""p3""",5,safety,#55824d,safety,1,4.0,6589.0,abs,within,features,0p3safety,abs,feat2
777,7uf644x3n7,268,0,"""uw_711""",1,"""p3""",5,working,#000000,working,1,4.0,6589.0,abs,within,activities,0p3working,abs,act2
778,7uf644x3n7,268,0,"""uw_711""",1,"""p3""",5,comfort,#a06776,comfort,1,4.0,6589.0,abs,within,features,0p3comfort,abs,feat2
779,7uf644x3n7,268,0,"""uw_711""",1,"""p3""",5,leisure,#e81a4b,leisure,1,4.0,6589.0,abs,within,activities,0p3leisure,abs,act2
780,7uf644x3n7,269,0,"""uw_711""",1,"""p5""",5,leisure,#a0bae6,leisure,1,4.0,6100.0,mix,across,activities,0p5leisure,conc,act2
781,7uf644x3n7,269,0,"""uw_711""",1,"""p5""",5,grape,#600b84,grape,1,4.0,6100.0,mix,across,fruits,0p5grape,abs,fruit1
782,7uf644x3n7,269,0,"""uw_711""",1,"""p5""",5,banana,#fcdb42,banana,1,4.0,6100.0,mix,across,fruits,0p5banana,abs,fruit1
783,7uf644x3n7,269,0,"""uw_711""",1,"""p5""",5,working,#3b3b3b,working,1,4.0,6100.0,mix,across,activities,0p5working,conc,act2
784,7uf644x3n7,270,0,"""uw_711""",1,"""p6""",5,eggplant,#600b84,eggplant,1,4.0,6196.0,conc,within,vegetables,0p6eggplant,conc,veg2
785,7uf644x3n7,270,0,"""uw_711""",1,"""p6""",5,cherry,#ea1d1d,cherry,1,4.0,6196.0,conc,within,fruits,0p6cherry,conc,fruit2
786,7uf644x3n7,270,0,"""uw_711""",1,"""p6""",5,celery,#73cf10,celery,1,4.0,6196.0,conc,within,vegetables,0p6celery,conc,veg2
787,7uf644x3n7,270,0,"""uw_711""",1,"""p6""",5,peach,#f7a75a,peach,1,4.0,6196.0,conc,within,fruits,0p6peach,conc,fruit2
788,7uf644x3n7,271,0,"""uw_711""",1,"""p8""",5,sleeping,#512d5f,sleeping,1,4.0,6142.0,mix,across,activities,0p8sleeping,conc,act1
789,7uf644x3n7,271,0,"""uw_711""",1,"""p8""",5,efficiency,#7ec6ba,efficiency,1,4.0,6142.0,mix,across,features,0p8efficiency,conc,feat1
790,7uf644x3n7,271,0,"""uw_711""",1,"""p8""",5,driving,#184415,driving,1,4.0,6142.0,mix,across,activities,0p8driving,conc,act1
791,7uf644x3n7,271,0,"""uw_711""",1,"""p8""",5,speed,#e81a4b,speed,1,4.0,6142.0,mix,across,features,0p8speed,conc,feat1
792,7uf644x3n7,272,0,"""uw_711""",1,"""p4""",5,eggplant,#600b84,eggplant,1,4.0,6455.0,mix,across,vegetables,0p4eggplant,abs,veg2
793,7uf644x3n7,272,0,"""uw_711""",1,"""p4""",5,efficiency,#5e78a1,efficiency,1,4.0,6455.0,mix,across,features,0p4efficiency,conc,feat1
794,7uf644x3n7,272,0,"""uw_711""",1,"""p4""",5,celery,#608218,celery,1,4.0,6455.0,mix,across,vegetables,0p4celery,abs,veg2
795,7uf644x3n7,272,0,"""uw_711""",1,"""p4""",5,speed,#e81a4b,speed,1,4.0,6455.0,mix,across,features,0p4speed,conc,feat1
796,7uf644x3n7,273,0,"""uw_711""",1,"""p7""",5,corn,#fcdb42,corn,1,4.0,6636.0,abs,within,vegetables,0p7corn,abs,veg1
797,7uf644x3n7,273,0,"""uw_711""",1,"""p7""",5,comfort,#a06776,comfort,1,4.0,6636.0,abs,within,features,0p7comfort,abs,feat2
798,7uf644x3n7,273,0,"""uw_711""",1,"""p7""",5,carrot,#cc4f1b,carrot,1,4.0,6636.0,abs,within,vegetables,0p7carrot,abs,veg1
799,7uf644x3n7,273,0,"""uw_711""",1,"""p7""",5,safety,#55824d,safety,1,4.0,6636.0,abs,within,features,0p7safety,abs,feat2
804,7uf644x3n7,276,0,"""uw_710""",2,"""p1""",6,corn,#ffffff,corn,1,4.0,6805.0,conc,within,vegetables,0p1corn,conc,veg1
805,7uf644x3n7,276,0,"""uw_710""",2,"""p1""",6,grape,#512d5f,grape,1,4.0,6805.0,conc,within,fruits,0p1grape,conc,fruit1
806,7uf644x3n7,276,0,"""uw_710""",2,"""p1""",6,banana,#d0b85a,banana,1,4.0,6805.0,conc,within,fruits,0p1banana,conc,fruit1
807,7uf644x3n7,276,0,"""uw_710""",2,"""p1""",6,carrot,#cc4f1b,carrot,1,4.0,6805.0,conc,within,vegetables,0p1carrot,conc,veg1
808,7uf644x3n7,277,0,"""uw_710""",2,"""p2""",6,peach,#f1a78a,peach,1,4.0,6748.0,mix,across,fruits,0p2peach,abs,fruit2
809,7uf644x3n7,277,0,"""uw_710""",2,"""p2""",6,sleeping,#512d5f,sleeping,1,4.0,6748.0,mix,across,activities,0p2sleeping,conc,act1
810,7uf644x3n7,277,0,"""uw_710""",2,"""p2""",6,cherry,#ea1d1d,cherry,1,4.0,6748.0,mix,across,fruits,0p2cherry,abs,fruit2
811,7uf644x3n7,277,0,"""uw_710""",2,"""p2""",6,driving,#3efe44,driving,1,4.0,6748.0,mix,across,activities,0p2driving,conc,act1
812,7uf644x3n7,278,0,"""uw_710""",2,"""p5""",6,leisure,#a0bae6,leisure,1,4.0,5903.0,mix,across,activities,0p5leisure,conc,act2
813,7uf644x3n7,278,0,"""uw_710""",2,"""p5""",6,working,#3b3b3b,working,1,4.0,5903.0,mix,across,activities,0p5working,conc,act2
814,7uf644x3n7,278,0,"""uw_710""",2,"""p5""",6,banana,#fcdb42,banana,1,4.0,5903.0,mix,across,fruits,0p5banana,abs,fruit1
815,7uf644x3n7,278,0,"""uw_710""",2,"""p5""",6,grape,#600b84,grape,1,4.0,5903.0,mix,across,fruits,0p5grape,abs,fruit1
816,7uf644x3n7,279,0,"""uw_710""",2,"""p6""",6,eggplant,#600b84,eggplant,1,4.0,6062.0,conc,within,vegetables,0p6eggplant,conc,veg2
817,7uf644x3n7,279,0,"""uw_710""",2,"""p6""",6,peach,#f7a75a,peach,1,4.0,6062.0,conc,within,fruits,0p6peach,conc,fruit2
818,7uf644x3n7,279,0,"""uw_710""",2,"""p6""",6,celery,#73cf10,celery,1,4.0,6062.0,conc,within,vegetables,0p6celery,conc,veg2
819,7uf644x3n7,279,0,"""uw_710""",2,"""p6""",6,cherry,#ea1d1d,cherry,1,4.0,6062.0,conc,within,fruits,0p6cherry,conc,fruit2
820,7uf644x3n7,280,0,"""uw_710""",2,"""p8""",6,sleeping,#512d5f,sleeping,1,4.0,10427.0,mix,across,activities,0p8sleeping,conc,act1
821,7uf644x3n7,280,0,"""uw_710""",2,"""p8""",6,speed,#e81a4b,speed,1,4.0,10427.0,mix,across,features,0p8speed,conc,feat1
822,7uf644x3n7,280,0,"""uw_710""",2,"""p8""",6,driving,#184415,driving,1,4.0,10427.0,mix,across,activities,0p8driving,conc,act1
823,7uf644x3n7,280,0,"""uw_710""",2,"""p8""",6,efficiency,#7ec6ba,efficiency,1,4.0,10427.0,mix,across,features,0p8efficiency,conc,feat1
824,7uf644x3n7,281,0,"""uw_710""",2,"""p7""",6,corn,#fcdb42,corn,1,4.0,5825.0,abs,within,vegetables,0p7corn,abs,veg1
825,7uf644x3n7,281,0,"""uw_710""",2,"""p7""",6,safety,#55824d,safety,1,4.0,5825.0,abs,within,features,0p7safety,abs,feat2
826,7uf644x3n7,281,0,"""uw_710""",2,"""p7""",6,carrot,#cc4f1b,carrot,1,4.0,5825.0,abs,within,vegetables,0p7carrot,abs,veg1
827,7uf644x3n7,281,0,"""uw_710""",2,"""p7""",6,comfort,#a06776,comfort,1,4.0,5825.0,abs,within,features,0p7comfort,abs,feat2
828,7uf644x3n7,282,0,"""uw_710""",2,"""p4""",6,eggplant,#600b84,eggplant,1,4.0,8403.0,mix,across,vegetables,0p4eggplant,abs,veg2
829,7uf644x3n7,282,0,"""uw_710""",2,"""p4""",6,speed,#e81a4b,speed,1,4.0,8403.0,mix,across,features,0p4speed,conc,feat1
830,7uf644x3n7,282,0,"""uw_710""",2,"""p4""",6,celery,#608218,celery,1,4.0,8403.0,mix,across,vegetables,0p4celery,abs,veg2
831,7uf644x3n7,282,0,"""uw_710""",2,"""p4""",6,efficiency,#5e78a1,efficiency,1,4.0,8403.0,mix,across,features,0p4efficiency,conc,feat1
836,7uf644x3n7,284,0,"""uw_710""",2,"""p3""",6,safety,#55824d,safety,1,4.0,7604.0,abs,within,features,0p3safety,abs,feat2
837,7uf644x3n7,284,0,"""uw_710""",2,"""p3""",6,leisure,#e81a4b,leisure,1,4.0,7604.0,abs,within,activities,0p3leisure,abs,act2
838,7uf644x3n7,284,0,"""uw_710""",2,"""p3""",6,comfort,#a06776,comfort,1,4.0,7604.0,abs,within,features,0p3comfort,abs,feat2
839,7uf644x3n7,284,0,"""uw_710""",2,"""p3""",6,working,#000000,working,1,4.0,7604.0,abs,within,activities,0p3working,abs,act2
840,7uf644x3n7,286,0,"""uw_711""",0,"""p8""",7,speed,#e81a4b,speed,1,4.0,8222.0,mix,across,features,0p8speed,conc,feat1
841,7uf644x3n7,286,0,"""uw_711""",0,"""p8""",7,sleeping,#512d5f,sleeping,1,4.0,8222.0,mix,across,activities,0p8sleeping,conc,act1
842,7uf644x3n7,286,0,"""uw_711""",0,"""p8""",7,efficiency,#7ec6ba,efficiency,1,4.0,8222.0,mix,across,features,0p8efficiency,conc,feat1
843,7uf644x3n7,286,0,"""uw_711""",0,"""p8""",7,driving,#184415,driving,1,4.0,8222.0,mix,across,activities,0p8driving,conc,act1
844,7uf644x3n7,287,0,"""uw_711""",0,"""p6""",7,peach,#f7a75a,peach,1,4.0,6884.0,conc,within,fruits,0p6peach,conc,fruit2
845,7uf644x3n7,287,0,"""uw_711""",0,"""p6""",7,eggplant,#600b84,eggplant,1,4.0,6884.0,conc,within,vegetables,0p6eggplant,conc,veg2
846,7uf644x3n7,287,0,"""uw_711""",0,"""p6""",7,cherry,#ea1d1d,cherry,1,4.0,6884.0,conc,within,fruits,0p6cherry,conc,fruit2
847,7uf644x3n7,287,0,"""uw_711""",0,"""p6""",7,celery,#73cf10,celery,1,4.0,6884.0,conc,within,vegetables,0p6celery,conc,veg2
848,7uf644x3n7,288,0,"""uw_711""",0,"""p7""",7,safety,#55824d,safety,1,4.0,7208.0,abs,within,features,0p7safety,abs,feat2
849,7uf644x3n7,288,0,"""uw_711""",0,"""p7""",7,corn,#fcdb42,corn,1,4.0,7208.0,abs,within,vegetables,0p7corn,abs,veg1
850,7uf644x3n7,288,0,"""uw_711""",0,"""p7""",7,comfort,#a06776,comfort,1,4.0,7208.0,abs,within,features,0p7comfort,abs,feat2
851,7uf644x3n7,288,0,"""uw_711""",0,"""p7""",7,carrot,#cc4f1b,carrot,1,4.0,7208.0,abs,within,vegetables,0p7carrot,abs,veg1
852,7uf644x3n7,289,0,"""uw_711""",0,"""p2""",7,sleeping,#512d5f,sleeping,1,4.0,8021.0,mix,across,activities,0p2sleeping,conc,act1
853,7uf644x3n7,289,0,"""uw_711""",0,"""p2""",7,peach,#f1a78a,peach,1,4.0,8021.0,mix,across,fruits,0p2peach,abs,fruit2
854,7uf644x3n7,289,0,"""uw_711""",0,"""p2""",7,driving,#3efe44,driving,1,4.0,8021.0,mix,across,activities,0p2driving,conc,act1
855,7uf644x3n7,289,0,"""uw_711""",0,"""p2""",7,cherry,#ea1d1d,cherry,1,4.0,8021.0,mix,across,fruits,0p2cherry,abs,fruit2
856,7uf644x3n7,290,0,"""uw_711""",0,"""p5""",7,working,#3b3b3b,working,1,4.0,7403.0,mix,across,activities,0p5working,conc,act2
857,7uf644x3n7,290,0,"""uw_711""",0,"""p5""",7,leisure,#a0bae6,leisure,1,4.0,7403.0,mix,across,activities,0p5leisure,conc,act2
858,7uf644x3n7,290,0,"""uw_711""",0,"""p5""",7,grape,#600b84,grape,1,4.0,7403.0,mix,across,fruits,0p5grape,abs,fruit1
859,7uf644x3n7,290,0,"""uw_711""",0,"""p5""",7,banana,#fcdb42,banana,1,4.0,7403.0,mix,across,fruits,0p5banana,abs,fruit1
860,7uf644x3n7,291,0,"""uw_711""",0,"""p4""",7,speed,#e81a4b,speed,1,4.0,6512.0,mix,across,features,0p4speed,conc,feat1
861,7uf644x3n7,291,0,"""uw_711""",0,"""p4""",7,eggplant,#600b84,eggplant,1,4.0,6512.0,mix,across,vegetables,0p4eggplant,abs,veg2
862,7uf644x3n7,291,0,"""uw_711""",0,"""p4""",7,efficiency,#5e78a1,efficiency,1,4.0,6512.0,mix,across,features,0p4efficiency,conc,feat1
863,7uf644x3n7,291,0,"""uw_711""",0,"""p4""",7,celery,#608218,celery,1,4.0,6512.0,mix,across,vegetables,0p4celery,abs,veg2
864,7uf644x3n7,292,0,"""uw_711""",0,"""p1""",7,grape,#512d5f,grape,1,4.0,7401.0,conc,within,fruits,0p1grape,conc,fruit1
865,7uf644x3n7,292,0,"""uw_711""",0,"""p1""",7,corn,#ffffff,corn,1,4.0,7401.0,conc,within,vegetables,0p1corn,conc,veg1
866,7uf644x3n7,292,0,"""uw_711""",0,"""p1""",7,carrot,#cc4f1b,carrot,1,4.0,7401.0,conc,within,vegetables,0p1carrot,conc,veg1
867,7uf644x3n7,292,0,"""uw_711""",0,"""p1""",7,banana,#d0b85a,banana,1,4.0,7401.0,conc,within,fruits,0p1banana,conc,fruit1
872,7uf644x3n7,294,0,"""uw_711""",0,"""p3""",7,leisure,#e81a4b,leisure,1,4.0,9080.0,abs,within,activities,0p3leisure,abs,act2
873,7uf644x3n7,294,0,"""uw_711""",0,"""p3""",7,safety,#55824d,safety,1,4.0,9080.0,abs,within,features,0p3safety,abs,feat2
874,7uf644x3n7,294,0,"""uw_711""",0,"""p3""",7,working,#000000,working,1,4.0,9080.0,abs,within,activities,0p3working,abs,act2
875,7uf644x3n7,294,0,"""uw_711""",0,"""p3""",7,comfort,#a06776,comfort,1,4.0,9080.0,abs,within,features,0p3comfort,abs,feat2
880,k4m0yen00q,303,0,"""uw_710""",3,"""p3""",0,leisure,#e81a4b,working,0,1.0,13138.0,abs,within,activities,0p3leisure,abs,act2
881,k4m0yen00q,303,0,"""uw_710""",3,"""p3""",0,comfort,#a06776,leisure,0,1.0,13138.0,abs,within,features,0p3comfort,abs,feat2
882,k4m0yen00q,303,0,"""uw_710""",3,"""p3""",0,working,#000000,comfort,0,1.0,13138.0,abs,within,activities,0p3working,abs,act2
883,k4m0yen00q,303,0,"""uw_710""",3,"""p3""",0,safety,#55824d,safety,1,1.0,13138.0,abs,within,features,0p3safety,abs,feat2
884,k4m0yen00q,304,0,"""uw_710""",3,"""p4""",0,speed,#e81a4b,speed,1,4.0,8386.0,mix,across,features,0p4speed,conc,feat1
885,k4m0yen00q,304,0,"""uw_710""",3,"""p4""",0,celery,#608218,celery,1,4.0,8386.0,mix,across,vegetables,0p4celery,abs,veg2
886,k4m0yen00q,304,0,"""uw_710""",3,"""p4""",0,efficiency,#5e78a1,efficiency,1,4.0,8386.0,mix,across,features,0p4efficiency,conc,feat1
887,k4m0yen00q,304,0,"""uw_710""",3,"""p4""",0,eggplant,#600b84,eggplant,1,4.0,8386.0,mix,across,vegetables,0p4eggplant,abs,veg2
888,k4m0yen00q,305,0,"""uw_710""",3,"""p1""",0,grape,#512d5f,grape,1,2.0,13164.0,conc,within,fruits,0p1grape,conc,fruit1
889,k4m0yen00q,305,0,"""uw_710""",3,"""p1""",0,banana,#d0b85a,corn,0,2.0,13164.0,conc,within,fruits,0p1banana,conc,fruit1
890,k4m0yen00q,305,0,"""uw_710""",3,"""p1""",0,carrot,#cc4f1b,carrot,1,2.0,13164.0,conc,within,vegetables,0p1carrot,conc,veg1
891,k4m0yen00q,305,0,"""uw_710""",3,"""p1""",0,corn,#ffffff,banana,0,2.0,13164.0,conc,within,vegetables,0p1corn,conc,veg1
892,k4m0yen00q,306,0,"""uw_710""",3,"""p6""",0,peach,#f7a75a,peach,1,2.0,12922.0,conc,within,fruits,0p6peach,conc,fruit2
893,k4m0yen00q,306,0,"""uw_710""",3,"""p6""",0,celery,#73cf10,cherry,0,2.0,12922.0,conc,within,vegetables,0p6celery,conc,veg2
894,k4m0yen00q,306,0,"""uw_710""",3,"""p6""",0,cherry,#ea1d1d,celery,0,2.0,12922.0,conc,within,fruits,0p6cherry,conc,fruit2
895,k4m0yen00q,306,0,"""uw_710""",3,"""p6""",0,eggplant,#600b84,eggplant,1,2.0,12922.0,conc,within,vegetables,0p6eggplant,conc,veg2
900,k4m0yen00q,308,0,"""uw_710""",3,"""p5""",0,working,#3b3b3b,working,1,4.0,7252.0,mix,across,activities,0p5working,conc,act2
901,k4m0yen00q,308,0,"""uw_710""",3,"""p5""",0,banana,#fcdb42,banana,1,4.0,7252.0,mix,across,fruits,0p5banana,abs,fruit1
902,k4m0yen00q,308,0,"""uw_710""",3,"""p5""",0,grape,#600b84,grape,1,4.0,7252.0,mix,across,fruits,0p5grape,abs,fruit1
903,k4m0yen00q,308,0,"""uw_710""",3,"""p5""",0,leisure,#a0bae6,leisure,1,4.0,7252.0,mix,across,activities,0p5leisure,conc,act2
904,k4m0yen00q,309,0,"""uw_710""",3,"""p2""",0,sleeping,#512d5f,driving,0,2.0,5894.0,mix,across,activities,0p2sleeping,conc,act1
905,k4m0yen00q,309,0,"""uw_710""",3,"""p2""",0,cherry,#ea1d1d,cherry,1,2.0,5894.0,mix,across,fruits,0p2cherry,abs,fruit2
906,k4m0yen00q,309,0,"""uw_710""",3,"""p2""",0,driving,#3efe44,sleeping,0,2.0,5894.0,mix,across,activities,0p2driving,conc,act1
907,k4m0yen00q,309,0,"""uw_710""",3,"""p2""",0,peach,#f1a78a,peach,1,2.0,5894.0,mix,across,fruits,0p2peach,abs,fruit2
908,k4m0yen00q,310,0,"""uw_710""",3,"""p7""",0,safety,#55824d,comfort,0,2.0,10694.0,abs,within,features,0p7safety,abs,feat2
909,k4m0yen00q,310,0,"""uw_710""",3,"""p7""",0,carrot,#cc4f1b,carrot,1,2.0,10694.0,abs,within,vegetables,0p7carrot,abs,veg1
910,k4m0yen00q,310,0,"""uw_710""",3,"""p7""",0,comfort,#a06776,safety,0,2.0,10694.0,abs,within,features,0p7comfort,abs,feat2
911,k4m0yen00q,310,0,"""uw_710""",3,"""p7""",0,corn,#fcdb42,corn,1,2.0,10694.0,abs,within,vegetables,0p7corn,abs,veg1
912,k4m0yen00q,311,0,"""uw_710""",3,"""p8""",0,speed,#e81a4b,speed,1,2.0,6962.0,mix,across,features,0p8speed,conc,feat1
913,k4m0yen00q,311,0,"""uw_710""",3,"""p8""",0,driving,#184415,driving,1,2.0,6962.0,mix,across,activities,0p8driving,conc,act1
914,k4m0yen00q,311,0,"""uw_710""",3,"""p8""",0,efficiency,#7ec6ba,sleeping,0,2.0,6962.0,mix,across,features,0p8efficiency,conc,feat1
915,k4m0yen00q,311,0,"""uw_710""",3,"""p8""",0,sleeping,#512d5f,efficiency,0,2.0,6962.0,mix,across,activities,0p8sleeping,conc,act1
916,k4m0yen00q,313,0,"""uw_711""",1,"""p4""",1,eggplant,#600b84,eggplant,1,4.0,6786.0,mix,across,vegetables,0p4eggplant,abs,veg2
917,k4m0yen00q,313,0,"""uw_711""",1,"""p4""",1,efficiency,#5e78a1,efficiency,1,4.0,6786.0,mix,across,features,0p4efficiency,conc,feat1
